participant number,block,trial,item nr,value on left,probability on left,value on right,probability on right,chosen,RT,confidence,confidence RT
201,1,1,1,4,10,1,75,2,1398,25,1791
201,1,2,2,4,75,3,60,1,1745,86.25,1493
201,1,3,3,1,40,6,25,2,1439,32.5,879
201,1,4,4,7,40,1,75,1,1372,66.25,1331
201,1,5,5,9,25,4,75,1,1510,21.25,1560
201,1,6,6,7,40,3,90,2,1740,92.5,981
201,1,7,7,9,60,6,90,1,2214,22.5,1459
201,1,8,8,4,10,3,90,2,1447,68.75,902
201,1,9,9,1,40,4,10,2,2164,3.75,1494
201,1,10,10,6,25,4,10,1,1494,28.75,1260
201,1,11,11,1,75,7,40,2,2619,73.75,1393
201,1,12,12,9,60,7,10,1,1330,22.5,1574
201,1,13,13,1,40,9,25,2,1182,38.75,1154
201,1,14,14,6,25,3,60,1,1992,66.25,1246
201,1,15,15,9,25,6,90,2,2013,75,1008
201,1,16,16,3,90,6,25,2,1292,33.75,844
201,1,17,17,4,10,3,60,2,1719,21.25,1837
201,1,18,18,6,90,1,75,1,1304,73.75,1318
201,1,19,19,4,10,9,25,2,2493,66.25,1297
201,1,20,20,9,25,7,10,1,1010,31.25,991
201,1,21,21,1,75,9,60,2,956,75,1598
201,1,22,22,3,90,9,60,2,2238,33.75,999
201,1,23,23,3,90,9,25,1,1219,71.25,1920
201,1,24,24,7,40,9,60,2,2012,86.25,1343
201,1,25,25,9,60,6,25,1,1372,88.75,1916
201,1,26,26,7,10,4,75,2,2318,33.75,675
201,1,27,27,3,60,9,25,1,1742,22.5,1932
201,2,1,28,7,40,6,25,1,1228,71.25,902
201,2,2,29,6,90,7,10,1,1694,33.75,1110
201,2,3,30,4,10,9,60,2,901,50,516
201,2,4,31,1,40,3,60,2,1375,83.75,1111
201,2,5,32,9,60,1,40,1,845,37.5,1023
201,2,6,33,6,90,4,10,1,1788,21.25,1952
201,2,7,34,3,60,1,40,1,2115,63.75,1909
201,2,8,35,6,90,7,40,1,1958,92.5,1063
201,2,9,36,7,40,9,25,2,1413,66.25,1225
201,2,10,37,3,90,4,75,1,1714,35,1874
201,2,11,38,1,75,6,90,2,1801,62.5,735
201,2,12,39,9,25,1,40,2,1125,33.75,1146
201,2,13,40,9,25,7,40,1,986,81.25,1349
201,2,14,41,6,25,1,40,2,2117,36.25,1389
201,2,15,42,3,60,6,90,2,967,68.75,3376
201,2,16,43,1,40,3,90,2,1811,30,892
201,2,17,44,9,60,1,75,1,991,100,1796
201,2,18,45,7,40,6,90,2,1791,65,861
201,2,19,46,4,10,1,40,1,2823,35,718
201,2,20,47,3,90,1,75,1,1093,66.25,725
201,2,21,48,6,25,1,75,1,1743,15,1478
201,2,22,49,7,10,1,75,1,861,76.25,1124
201,2,23,50,6,25,7,10,2,6335,76.25,1835
201,2,24,51,9,60,7,40,1,1640,80,1347
201,2,25,52,4,75,6,25,2,3512,88.75,1181
201,2,26,53,7,40,4,75,1,1534,30,2223
201,2,27,54,7,40,3,60,1,2124,63.75,1130
201,3,1,55,1,75,3,90,2,1148,38.75,1236
201,3,2,56,3,60,1,75,1,1015,62.5,870
201,3,3,57,9,25,3,90,2,2182,50,521
201,3,4,58,7,40,4,10,1,875,66.25,860
201,3,5,59,1,40,7,10,2,807,67.5,1430
201,3,6,60,1,75,4,10,2,2030,35,875
201,3,7,61,6,25,3,90,1,801,66.25,999
201,3,8,62,4,10,7,40,2,284,88.75,1066
201,3,9,63,6,90,3,60,1,946,33.75,1892
201,3,10,64,4,75,7,40,2,863,61.25,1205
201,3,11,65,4,75,3,90,1,1734,76.25,785
201,3,12,66,9,25,4,10,1,689,100,1278
201,3,13,67,3,90,7,10,2,1094,35,674
201,3,14,68,7,10,9,60,2,809,70,841
201,3,15,69,4,75,6,90,2,266,66.25,1100
201,3,16,70,7,10,1,40,1,358,31.25,874
201,3,17,71,1,40,4,75,2,713,77.5,1539
201,3,18,72,7,10,6,90,1,801,30,1034
201,3,19,73,1,75,6,25,2,897,75,1321
201,3,20,74,9,60,4,75,1,905,30,1062
201,3,21,75,9,25,3,60,1,1181,71.25,1188
201,3,22,76,3,90,4,10,2,2185,78.75,1406
201,3,23,77,1,75,3,60,1,413,26.25,1237
201,3,24,78,1,75,9,25,2,429,68.75,1087
201,3,25,79,1,75,7,10,2,900,86.25,1101
201,3,26,80,6,90,4,75,1,839,30,2534
201,3,27,81,6,25,4,75,1,1268,70,967
201,4,1,82,1,40,6,90,2,1164,70,1454
201,4,2,83,9,25,1,75,1,813,66.25,1138
201,4,3,84,6,25,7,40,1,922,82.5,1448
201,4,4,85,1,40,9,60,2,650,31.25,1485
201,4,5,86,6,25,9,60,2,726,88.75,1592
201,4,6,87,7,10,3,60,1,835,32.5,1082
201,4,7,88,3,60,6,25,2,954,31.25,2319
201,4,8,89,6,90,1,40,1,859,85,858
201,4,9,90,4,75,1,40,1,1217,82.5,1788
201,4,10,91,3,90,7,40,2,1760,86.25,1479
201,4,11,92,6,90,9,60,2,2900,91.25,1357
201,4,12,93,4,75,7,10,1,1318,68.75,683
201,4,13,94,4,75,9,25,2,688,20,963
201,4,14,95,7,10,3,90,2,864,65,3145
201,4,15,96,7,10,6,25,2,1772,23.75,1215
201,4,16,97,7,10,9,25,2,1060,82.5,1927
201,4,17,98,3,60,7,40,2,1859,90,1565
201,4,18,99,3,60,4,10,1,2136,35,1253
201,4,19,100,4,75,9,60,2,622,87.5,1211
201,4,20,101,6,90,9,25,1,1191,68.75,1096
201,4,21,102,9,60,3,90,1,860,98.75,1377
201,4,22,103,4,10,6,90,2,1620,30,933
201,4,23,104,3,60,7,10,2,1103,85,983
201,4,24,105,3,60,4,75,1,420,32.5,830
201,4,25,106,3,90,1,40,2,302,0,1550
201,4,26,107,4,10,6,25,2,1367,76.25,1170
201,4,27,108,9,60,4,10,1,635,20,1836
202,1,1,1,6,90,1,75,1,1990,67.5,3106
202,1,2,2,3,60,9,25,1,3808,63.75,2305
202,1,3,3,7,40,1,75,1,2202,57.5,1237
202,1,4,4,6,90,4,10,1,1262,92.5,2594
202,1,5,5,6,90,7,10,1,2456,83.75,2772
202,1,6,6,4,10,9,60,2,2318,85,2239
202,1,7,7,4,10,1,75,1,2515,68.75,1693
202,1,8,8,6,25,4,75,2,2470,71.25,1503
202,1,9,9,9,60,7,10,1,1972,81.25,2201
202,1,10,10,3,90,6,25,1,2648,55,2244
202,1,11,11,1,40,7,10,2,2063,55,3199
202,1,12,12,1,40,4,75,2,1259,73.75,1544
202,1,13,13,6,25,3,60,2,7731,50,0
202,1,14,14,1,40,6,25,2,2450,50,0
202,1,15,15,3,90,7,40,1,1466,47.5,1918
202,1,16,16,4,10,3,90,2,1125,70,1496
202,1,17,17,7,40,9,25,1,3483,75,2129
202,1,18,18,9,25,7,40,2,1426,70,1461
202,1,19,19,1,40,3,90,2,1415,70,1524
202,1,20,20,7,40,4,75,1,2855,56.25,1102
202,1,21,21,3,60,4,75,2,1237,72.5,1533
202,1,22,22,6,25,1,40,1,1334,50,384
202,1,23,23,4,75,1,40,1,1715,72.5,1857
202,1,24,24,3,60,6,25,1,1714,70,1726
202,1,25,25,3,90,1,75,1,1486,68.75,1100
202,1,26,26,6,25,9,60,2,1191,77.5,2148
202,1,27,27,6,90,9,25,1,1999,68.75,1573
202,2,1,28,4,10,1,40,2,2084,57.5,1496
202,2,2,29,6,25,3,90,2,2018,63.75,1306
202,2,3,30,6,90,1,40,1,930,86.25,1941
202,2,4,31,7,10,6,25,2,2645,71.25,1513
202,2,5,32,1,75,9,60,2,2611,50,0
202,2,6,33,9,60,4,10,1,1195,83.75,1817
202,2,7,34,9,25,4,75,2,2049,75,1507
202,2,8,35,4,75,9,25,1,1968,50,0
202,2,9,36,3,90,9,25,1,1345,57.5,2233
202,2,10,37,3,90,4,75,1,1953,82.5,1971
202,2,11,38,1,75,3,60,2,1408,63.75,1245
202,2,12,39,3,90,1,40,1,1550,55,2289
202,2,13,40,4,75,3,60,1,1497,82.5,2092
202,2,14,41,3,90,4,10,1,1367,86.25,1587
202,2,15,42,4,75,9,60,1,2064,73.75,1893
202,2,16,43,3,90,9,60,2,901,67.5,1200
202,2,17,44,1,40,9,60,2,915,87.5,1989
202,2,18,45,6,90,4,75,1,1566,83.75,2340
202,2,19,46,9,60,1,40,1,1127,83.75,1544
202,2,20,47,9,60,1,75,1,1667,86.25,1120
202,2,21,48,9,25,4,10,1,1859,81.25,1078
202,2,22,49,7,10,1,40,2,1396,40,2659
202,2,23,50,4,10,6,90,2,1078,73.75,1190
202,2,24,51,7,10,4,75,2,1644,47.5,1544
202,2,25,52,3,60,4,10,1,1979,73.75,958
202,2,26,53,3,60,6,90,2,1270,83.75,1016
202,2,27,54,6,25,7,10,1,1987,58.75,1017
202,3,1,55,9,60,4,75,1,1747,61.25,1251
202,3,2,56,1,75,6,25,1,2161,30,1455
202,3,3,57,4,10,9,25,2,2006,62.5,1149
202,3,4,58,4,75,7,10,1,1973,57.5,1064
202,3,5,59,7,10,1,75,1,1619,58.75,1285
202,3,6,60,6,25,4,10,1,1502,72.5,984
202,3,7,61,1,75,6,90,2,1298,77.5,970
202,3,8,62,4,75,3,90,1,1985,70,838
202,3,9,63,9,25,1,40,1,1599,71.25,853
202,3,10,64,7,40,4,10,1,1190,73.75,878
202,3,11,65,7,10,6,90,2,1317,90,1336
202,3,12,66,7,10,9,60,2,1290,81.25,1129
202,3,13,67,4,75,6,90,2,1435,86.25,1503
202,3,14,68,9,60,3,90,1,1675,51.25,2833
202,3,15,69,9,60,6,25,1,1001,76.25,999
202,3,16,70,9,25,7,10,1,2157,68.75,1149
202,3,17,71,7,40,3,90,1,1341,67.5,1128
202,3,18,72,4,10,7,40,2,1163,71.25,871
202,3,19,73,3,60,7,10,2,1547,53.75,2559
202,3,20,74,4,75,7,40,2,1747,58.75,823
202,3,21,75,1,40,3,60,2,2252,72.5,852
202,3,22,76,1,40,9,25,2,1919,57.5,700
202,3,23,77,1,75,3,90,2,1687,68.75,1185
202,3,24,78,1,75,7,10,2,1578,58.75,874
202,3,25,79,1,75,4,10,2,1657,57.5,678
202,3,26,80,4,75,6,25,1,1037,56.25,914
202,3,27,81,9,60,6,90,1,914,60,1240
202,4,1,82,1,40,4,10,2,1771,57.5,740
202,4,2,83,3,90,7,10,1,2062,61.25,925
202,4,3,84,3,60,7,40,2,1807,62.5,730
202,4,4,85,7,10,9,25,2,2209,81.25,862
202,4,5,86,7,10,3,60,2,1652,73.75,917
202,4,6,87,7,10,3,90,2,1181,71.25,2441
202,4,7,88,7,40,6,25,1,1633,63.75,1186
202,4,8,89,9,25,1,75,1,1713,61.25,806
202,4,9,90,7,40,6,90,2,1812,70,673
202,4,10,91,9,25,3,60,1,1715,65,873
202,4,11,92,1,40,6,90,2,1305,67.5,1363
202,4,12,93,6,25,7,40,2,1614,63.75,1038
202,4,13,94,9,25,3,90,2,1508,65,1077
202,4,14,95,9,60,7,40,1,3822,65,920
202,4,15,96,6,25,1,75,1,1657,58.75,511
202,4,16,97,1,75,7,40,2,1955,68.75,747
202,4,17,98,6,90,3,60,1,1343,73.75,757
202,4,18,99,1,75,9,25,2,1565,67.5,1038
202,4,19,100,7,40,9,60,2,1788,68.75,1198
202,4,20,101,4,10,3,60,2,1253,61.25,765
202,4,21,102,9,25,6,90,2,1726,60,659
202,4,22,103,6,90,7,40,1,1558,65,1094
202,4,23,104,7,40,3,60,2,1797,23.75,2360
202,4,24,105,3,60,1,40,1,1531,55,606
202,4,25,106,4,10,6,25,2,2189,58.75,781
202,4,26,107,6,90,9,60,2,1677,62.5,607
202,4,27,108,3,60,1,75,1,1787,63.75,966
203,1,1,1,7,40,6,25,1,1388,75,1434
203,1,2,2,4,75,1,40,1,1023,87.5,1292
203,1,3,3,6,25,1,75,2,1588,97.5,1330
203,1,4,4,7,40,3,90,2,1912,32.5,2045
203,1,5,5,3,60,4,75,2,1680,100,1117
203,1,6,6,9,60,7,10,1,1197,100,1120
203,1,7,7,6,90,4,75,1,2385,100,1354
203,1,8,8,9,25,4,10,1,2303,100,1118
203,1,9,9,4,75,9,60,2,2349,61.25,772
203,1,10,10,4,10,7,40,2,1238,100,1222
203,1,11,11,4,10,6,25,2,933,98.75,984
203,1,12,12,9,25,1,75,2,1418,43.75,4428
203,1,13,13,9,25,7,40,2,2434,67.5,883
203,1,14,14,9,25,4,75,2,1503,61.25,596
203,1,15,15,7,10,1,75,1,1831,23.75,1457
203,1,16,16,1,40,3,60,2,1065,100,1087
203,1,17,17,6,90,7,40,1,714,100,1235
203,1,18,18,7,10,9,25,2,854,82.5,1012
203,1,19,19,3,60,7,10,1,981,62.5,685
203,1,20,20,9,60,3,90,1,2279,63.75,1094
203,1,21,21,1,40,3,90,2,1563,100,1164
203,1,22,22,4,10,9,60,2,2288,100,1151
203,1,23,23,7,10,3,90,2,1300,41.25,1135
203,1,24,24,1,40,6,90,2,842,100,1123
203,1,25,25,4,10,3,60,2,1318,62.5,816
203,1,26,26,6,90,3,60,1,2131,100,1074
203,1,27,27,3,60,9,25,2,4641,42.5,1088
203,2,1,28,3,60,7,40,2,3845,72.5,1114
203,2,2,29,1,75,3,60,2,3321,63.75,1188
203,2,3,30,7,10,1,40,1,4111,25,1158
203,2,4,31,4,75,6,25,1,3005,61.25,802
203,2,5,32,6,25,3,60,2,3222,75,867
203,2,6,33,4,75,9,25,1,2576,36.25,1438
203,2,7,34,1,75,4,10,1,1125,81.25,1428
203,2,8,35,7,40,6,90,2,1605,65,1180
203,2,9,36,3,90,9,60,2,3309,62.5,729
203,2,10,37,7,10,6,25,2,2881,76.25,1678
203,2,11,38,6,25,7,40,2,1187,82.5,1130
203,2,12,39,3,90,7,10,1,2175,63.75,754
203,2,13,40,1,40,9,25,2,2763,65,871
203,2,14,41,4,10,1,40,2,2830,100,986
203,2,15,42,6,90,7,10,1,1686,97.5,1098
203,2,16,43,4,75,6,90,2,2359,95,1278
203,2,17,44,9,25,6,90,2,1780,85,905
203,2,18,45,3,60,4,10,1,4769,81.25,970
203,2,19,46,7,40,4,10,1,3090,77.5,1045
203,2,20,47,6,90,9,25,1,2503,80,994
203,2,21,48,9,60,4,10,1,1593,100,1035
203,2,22,49,9,60,1,75,1,2583,67.5,639
203,2,23,50,7,40,4,75,2,2214,78.75,657
203,2,24,51,1,75,6,90,2,2089,21.25,2245
203,2,25,52,9,25,1,40,1,2662,20,1237
203,2,26,53,7,10,6,90,2,3523,96.25,1115
203,2,27,54,7,10,4,75,2,5607,67.5,673
203,3,1,55,3,90,6,25,1,2138,82.5,1594
203,3,2,56,4,10,9,25,2,1646,98.75,1056
203,3,3,57,7,10,9,60,2,1212,100,1023
203,3,4,58,3,90,1,75,2,1818,0,1018
203,3,5,59,6,25,7,10,1,2987,56.25,662
203,3,6,60,4,75,7,40,1,4189,65,646
203,3,7,61,7,10,3,60,2,3094,77.5,1081
203,3,8,62,4,75,3,60,1,2570,80,1103
203,3,9,63,9,25,7,10,1,1236,98.75,959
203,3,10,64,1,75,7,10,1,1074,78.75,808
203,3,11,65,3,60,6,90,2,3114,100,1176
203,3,12,66,3,60,6,25,1,2058,53.75,779
203,3,13,67,3,60,1,40,1,1621,56.25,696
203,3,14,68,1,75,7,40,2,7558,31.25,1475
203,3,15,69,3,90,4,10,1,1599,97.5,988
203,3,16,70,6,25,4,10,1,1800,71.25,1162
203,3,17,71,7,40,9,60,2,2209,97.5,1112
203,3,18,72,1,40,4,10,2,1313,36.25,605
203,3,19,73,1,75,9,60,2,1598,73.75,863
203,3,20,74,6,25,9,60,2,1005,98.75,1130
203,3,21,75,1,40,7,10,2,5649,32.5,792
203,3,22,76,1,40,6,25,2,1923,56.25,1624
203,3,23,77,3,90,1,40,1,1474,100,1546
203,3,24,78,9,60,6,90,2,2313,80,834
203,3,25,79,3,90,9,25,1,1688,42.5,529
203,3,26,80,3,90,4,75,1,1602,60,618
203,3,27,81,6,90,9,60,1,3254,70,899
203,4,1,82,3,60,1,75,1,2922,56.25,655
203,4,2,83,6,25,4,75,2,2743,53.75,723
203,4,3,84,9,25,3,90,2,2143,41.25,1178
203,4,4,85,9,25,3,60,1,2389,58.75,1102
203,4,5,86,6,90,4,10,1,2267,100,1124
203,4,6,87,1,75,6,25,2,2031,41.25,779
203,4,7,88,4,75,3,90,2,1454,80,1048
203,4,8,89,1,75,3,90,2,1386,97.5,1049
203,4,9,90,1,40,9,60,2,929,97.5,1188
203,4,10,91,6,90,1,40,1,1200,98.75,1019
203,4,11,92,9,60,6,25,1,1318,96.25,867
203,4,12,93,6,90,1,75,1,2328,100,1496
203,4,13,94,1,75,9,25,2,2125,11.25,1157
203,4,14,95,6,25,3,90,2,2741,67.5,855
203,4,15,96,9,60,4,75,1,2147,71.25,706
203,4,16,97,3,90,7,40,1,1566,43.75,600
203,4,17,98,7,40,3,60,2,840,37.5,1341
203,4,18,99,7,40,1,75,1,2349,38.75,656
203,4,19,100,9,60,7,40,1,1772,96.25,1125
203,4,20,101,7,40,9,25,1,2913,56.25,553
203,4,21,102,6,25,1,40,1,1779,45,1076
203,4,22,103,1,40,4,75,2,1207,98.75,1154
203,4,23,104,9,60,1,40,1,966,82.5,1818
203,4,24,105,4,10,1,75,2,2457,90,781
203,4,25,106,4,10,6,90,2,1196,93.75,1089
203,4,26,107,4,10,3,90,2,652,93.75,941
203,4,27,108,4,75,7,10,1,1089,43.75,540
204,1,1,1,9,25,1,75,1,5283,100,3591
204,1,2,2,6,90,4,10,1,2202,100,1453
204,1,3,3,6,90,4,75,1,2263,100,1465
204,1,4,4,4,75,9,25,2,4782,100,1761
204,1,5,5,6,90,3,60,1,2848,100,1902
204,1,6,6,7,10,3,90,2,4632,47.5,3624
204,1,7,7,7,10,9,60,2,1516,100,1273
204,1,8,8,7,40,3,60,1,2668,100,1408
204,1,9,9,4,10,3,60,2,2871,100,1192
204,1,10,10,4,75,9,60,2,3435,90,2966
204,1,11,11,4,10,9,60,2,2952,50,0
204,1,12,12,1,75,7,10,2,4700,88.75,2455
204,1,13,13,3,60,4,75,2,2802,100,1146
204,1,14,14,9,25,7,10,1,3067,100,1980
204,1,15,15,1,40,9,25,2,3322,100,1410
204,1,16,16,4,10,9,25,2,3354,100,1163
204,1,17,17,9,25,6,90,2,6536,100,1017
204,1,18,18,4,75,1,40,1,2253,100,938
204,1,19,19,3,60,4,10,1,4347,100,1000
204,1,20,20,1,75,9,25,2,2646,100,1176
204,1,21,21,9,60,7,10,1,1777,100,1114
204,1,22,22,4,10,1,40,1,3194,87.5,5312
204,1,23,23,1,40,4,75,2,2515,100,1211
204,1,24,24,3,60,9,25,2,5036,100,1382
204,1,25,25,1,40,4,10,2,5884,100,1091
204,1,26,26,3,90,1,40,1,1971,100,1163
204,1,27,27,1,75,6,25,2,3857,92.5,2066
204,2,1,28,3,60,6,25,2,8728,100,1155
204,2,2,29,6,90,9,60,2,4018,100,1164
204,2,3,30,7,40,4,75,1,8196,90,2545
204,2,4,31,6,90,7,10,1,4116,100,1297
204,2,5,32,4,10,7,40,2,2947,100,1146
204,2,6,33,6,25,4,10,1,2264,100,1258
204,2,7,34,9,25,4,75,1,7301,100,1986
204,2,8,35,1,75,3,90,2,2099,100,1042
204,2,9,36,4,10,3,90,2,3183,100,1023
204,2,10,37,7,40,9,25,1,9733,100,1180
204,2,11,38,7,40,4,10,1,2992,100,1210
204,2,12,39,1,40,6,25,2,2091,100,1168
204,2,13,40,3,60,7,40,2,2701,100,1117
204,2,14,41,6,90,1,40,1,1177,100,1212
204,2,15,42,7,40,6,25,1,3618,100,1188
204,2,16,43,9,60,6,90,2,4519,100,1084
204,2,17,44,3,90,7,40,2,4360,100,1322
204,2,18,45,6,25,1,40,1,3578,100,1149
204,2,19,46,1,40,9,60,2,1703,100,1286
204,2,20,47,6,25,7,40,2,6976,100,1417
204,2,21,48,9,60,4,75,1,2358,100,1779
204,2,22,49,3,60,6,90,2,3170,100,1341
204,2,23,50,4,10,6,25,2,1478,100,1312
204,2,24,51,1,75,9,60,2,1770,100,1925
204,2,25,52,3,90,9,60,2,2257,100,1220
204,2,26,53,3,90,6,25,2,3384,100,1435
204,2,27,54,3,90,4,10,1,4132,100,1227
204,3,1,55,6,90,1,75,1,2394,100,1513
204,3,2,56,6,25,4,75,2,3628,100,1200
204,3,3,57,1,75,6,90,2,1170,100,1382
204,3,4,58,4,75,3,60,1,3263,100,1148
204,3,5,59,1,75,7,40,2,3001,100,1161
204,3,6,60,7,10,9,25,2,4357,100,1319
204,3,7,61,6,25,1,75,1,3002,100,1220
204,3,8,62,6,25,3,60,1,4568,100,1237
204,3,9,63,3,90,4,75,2,5003,100,1178
204,3,10,64,9,25,1,40,1,3700,100,1255
204,3,11,65,9,60,4,10,1,3500,100,1312
204,3,12,66,9,60,1,40,1,1610,100,1283
204,3,13,67,4,75,6,90,2,3265,100,1247
204,3,14,68,9,25,3,60,1,3559,100,1438
204,3,15,69,7,10,6,90,2,1241,100,1299
204,3,16,70,9,60,6,25,1,4015,100,1263
204,3,17,71,4,75,7,10,1,4826,100,1212
204,3,18,72,1,40,3,60,2,3882,100,1165
204,3,19,73,1,40,3,90,2,1079,100,1158
204,3,20,74,7,10,1,75,1,5305,75,3263
204,3,21,75,7,10,4,75,2,7944,100,1218
204,3,22,76,6,25,3,90,2,4604,50,449
204,3,23,77,3,90,7,10,1,6356,100,1066
204,3,24,78,3,90,1,75,1,1545,100,1126
204,3,25,79,7,10,1,40,1,3774,100,1121
204,3,26,80,9,60,3,90,1,4115,100,997
204,3,27,81,7,40,6,90,2,2702,100,1289
204,4,1,82,6,25,9,60,2,1721,100,1188
204,4,2,83,7,40,1,75,1,3246,100,1310
204,4,3,84,9,60,1,75,1,1956,100,1066
204,4,4,85,7,40,9,60,2,2479,100,1334
204,4,5,86,4,75,3,90,1,3759,100,1104
204,4,6,87,1,75,4,10,1,5426,100,1291
204,4,7,88,9,25,7,40,1,6108,85,2399
204,4,8,89,7,40,3,90,1,5337,80,2223
204,4,9,90,9,60,7,40,1,2490,100,1388
204,4,10,91,6,25,7,10,1,4919,100,1163
204,4,11,92,3,60,7,10,1,3053,100,1078
204,4,12,93,1,40,6,90,2,1430,100,1215
204,4,13,94,7,10,6,25,2,3989,100,1057
204,4,14,95,4,75,7,40,2,6326,100,1081
204,4,15,96,3,60,1,40,1,2547,100,1053
204,4,16,97,4,10,6,90,2,1433,100,1124
204,4,17,98,4,10,1,75,2,6899,100,1041
204,4,18,99,6,90,7,40,1,1638,100,1270
204,4,19,100,9,25,3,90,1,3938,100,1396
204,4,20,101,3,60,1,75,1,2565,100,1164
204,4,21,102,3,90,9,25,2,4554,100,1197
204,4,22,103,9,25,4,10,1,2467,100,936
204,4,23,104,1,75,3,60,2,5387,100,1046
204,4,24,105,4,75,6,25,1,6032,100,1138
204,4,25,106,6,90,9,25,1,4276,100,1122
204,4,26,107,7,10,3,60,2,5445,100,1060
204,4,27,108,1,40,7,10,2,3963,100,1125
205,1,1,1,6,25,3,60,1,6406,100,1896
205,1,2,2,3,60,4,75,2,2333,100,1177
205,1,3,3,3,60,6,90,2,3703,100,1570
205,1,4,4,3,90,9,60,2,3633,100,1179
205,1,5,5,9,25,4,75,2,3271,100,1056
205,1,6,6,9,25,4,10,1,1498,100,3250
205,1,7,7,9,60,4,10,1,1536,100,801
205,1,8,8,3,90,9,25,1,2199,100,1062
205,1,9,9,1,75,4,10,1,2267,81.25,668
205,1,10,10,9,60,7,40,1,1641,100,780
205,1,11,11,7,10,1,75,1,5308,36.25,848
205,1,12,12,9,60,6,90,2,1544,83.75,896
205,1,13,13,6,90,4,75,1,2589,100,1078
205,1,14,14,4,10,1,75,2,4873,81.25,870
205,1,15,15,7,40,3,60,2,3572,43.75,1462
205,1,16,16,1,40,6,90,2,1999,100,1527
205,1,17,17,3,90,6,25,1,5941,93.75,767
205,1,18,18,3,90,7,10,1,2055,36.25,953
205,1,19,19,4,75,9,60,2,2494,62.5,833
205,1,20,20,4,10,6,25,2,6070,82.5,1570
205,1,21,21,9,60,6,25,1,6240,97.5,1946
205,1,22,22,6,90,3,60,1,2492,100,765
205,1,23,23,3,90,7,40,1,2662,62.5,729
205,1,24,24,6,25,3,90,2,4524,65,843
205,1,25,25,1,75,7,40,2,2699,57.5,1593
205,1,26,26,4,75,1,40,1,2685,100,1042
205,1,27,27,4,10,3,60,2,5917,70,830
205,2,1,28,7,40,4,10,1,3290,100,1133
205,2,2,29,9,60,1,75,1,4538,81.25,1097
205,2,3,30,6,90,7,40,1,4109,100,1106
205,2,4,31,3,90,1,40,1,2261,100,998
205,2,5,32,7,10,9,60,2,2096,100,1046
205,2,6,33,3,60,7,40,1,4508,86.25,668
205,2,7,34,1,40,9,60,2,2409,100,1151
205,2,8,35,1,75,6,90,2,1400,100,1025
205,2,9,36,6,25,1,75,1,3639,37.5,775
205,2,10,37,7,40,6,25,1,4251,87.5,1796
205,2,11,38,1,40,6,25,2,4423,100,963
205,2,12,39,7,10,9,25,2,2915,100,1831
205,2,13,40,7,10,6,25,2,3837,90,1009
205,2,14,41,4,10,1,40,2,7815,86.25,830
205,2,15,42,1,75,3,60,2,2545,100,990
205,2,16,43,9,60,4,75,1,4106,23.75,859
205,2,17,44,4,75,9,25,1,2364,70,1014
205,2,18,45,7,10,4,75,2,4546,93.75,921
205,2,19,46,7,40,3,90,2,4239,71.25,1127
205,2,20,47,6,25,4,75,2,1985,98.75,910
205,2,21,48,7,40,1,75,2,3664,50,522
205,2,22,49,7,10,3,90,2,6930,96.25,917
205,2,23,50,7,40,6,90,1,2243,50,983
205,2,24,51,3,90,4,75,2,3291,17.5,1784
205,2,25,52,1,40,4,75,2,2252,100,1058
205,2,26,53,1,40,4,10,1,7559,61.25,2036
205,2,27,54,7,40,9,60,2,2194,100,1234
205,3,1,55,9,25,7,10,1,2779,100,1086
205,3,2,56,6,25,1,40,1,5416,50,1186
205,3,3,57,6,90,9,60,1,3427,76.25,582
205,3,4,58,6,90,1,75,1,3889,100,859
205,3,5,59,6,25,7,40,2,3305,100,1056
205,3,6,60,9,60,1,40,1,11061,82.5,1793
205,3,7,61,4,75,3,90,2,1909,98.75,814
205,3,8,62,6,90,4,10,1,3332,100,1543
205,3,9,63,4,75,7,40,1,3869,63.75,1428
205,3,10,64,1,40,7,10,2,9011,17.5,868
205,3,11,65,6,25,4,10,1,3235,100,2015
205,3,12,66,7,10,6,90,2,1813,98.75,1009
205,3,13,67,3,60,6,25,1,5363,40,618
205,3,14,68,3,60,1,75,1,3243,75,416
205,3,15,69,3,60,1,40,1,1878,100,862
205,3,16,70,7,10,1,40,1,3818,47.5,4459
205,3,17,71,4,10,7,40,2,2059,100,864
205,3,18,72,6,90,1,40,1,1462,100,778
205,3,19,73,9,25,3,60,1,4600,58.75,2836
205,3,20,74,4,75,3,60,1,3303,100,1246
205,3,21,75,3,90,4,10,1,2740,100,1167
205,3,22,76,4,10,9,60,2,3461,100,1182
205,3,23,77,4,10,9,25,2,3958,100,1088
205,3,24,78,7,40,4,75,2,5764,45,1957
205,3,25,79,4,75,6,90,2,3633,100,1732
205,3,26,80,9,25,7,40,1,7375,56.25,1247
205,3,27,81,3,60,9,25,1,6596,81.25,1340
205,4,1,82,4,75,7,10,1,1914,91.25,2768
205,4,2,83,3,60,7,10,1,2869,86.25,923
205,4,3,84,1,75,7,10,2,6108,33.75,848
205,4,4,85,7,10,3,60,2,2536,77.5,926
205,4,5,86,6,25,7,10,2,3092,58.75,1600
205,4,6,87,4,10,6,90,2,1606,100,950
205,4,7,88,9,60,7,10,1,2002,100,1542
205,4,8,89,6,90,7,10,2,3422,0,1658
205,4,9,90,9,25,1,40,1,4955,76.25,643
205,4,10,91,9,25,1,75,1,3316,90,980
205,4,11,92,3,60,4,10,1,3123,100,940
205,4,12,93,6,90,9,25,1,3081,100,1497
205,4,13,94,1,40,3,60,2,2457,100,1582
205,4,14,95,1,75,6,25,2,3622,22.5,724
205,4,15,96,1,75,9,60,2,1974,100,1020
205,4,16,97,4,75,6,25,1,4600,100,1049
205,4,17,98,1,40,3,90,2,2126,100,1015
205,4,18,99,1,75,3,90,2,2912,100,1986
205,4,19,100,9,25,3,90,1,10628,51.25,3547
205,4,20,101,4,10,3,90,2,2075,100,1050
205,4,21,102,1,75,9,25,2,3546,52.5,1533
205,4,22,103,9,25,6,90,2,2553,93.75,1325
205,4,23,104,7,40,9,25,1,8361,88.75,1083
205,4,24,105,1,40,9,25,2,2126,53.75,1318
205,4,25,106,6,25,9,60,2,2193,100,1118
205,4,26,107,9,60,3,90,1,3878,46.25,649
205,4,27,108,3,90,1,75,1,2751,100,895
206,1,1,1,7,10,6,25,2,1845,100,1666
206,1,2,2,3,60,1,75,1,2806,72.5,2578
206,1,3,3,1,40,7,10,2,3094,60,1194
206,1,4,4,3,60,7,10,1,3470,63.75,2039
206,1,5,5,3,60,6,90,2,2586,96.25,1797
206,1,6,6,4,75,6,25,1,2678,72.5,1655
206,1,7,7,7,40,6,90,2,1723,96.25,2352
206,1,8,8,6,25,1,75,2,4244,50,2046
206,1,9,9,9,60,1,75,1,1870,87.5,1936
206,1,10,10,9,25,3,90,2,2519,82.5,1735
206,1,11,11,6,90,7,10,1,1643,91.25,1729
206,1,12,12,7,10,4,75,2,2465,62.5,1039
206,1,13,13,6,25,3,90,2,1536,68.75,1180
206,1,14,14,9,25,4,75,2,2148,60,1406
206,1,15,15,4,10,1,75,2,1676,50,606
206,1,16,16,9,60,7,10,1,2288,100,2017
206,1,17,17,7,40,9,25,1,3569,60,974
206,1,18,18,1,40,3,60,2,1972,100,1363
206,1,19,19,9,25,1,75,1,3292,50,645
206,1,20,20,1,75,3,90,2,1981,100,1114
206,1,21,21,9,25,3,60,1,2784,50,880
206,1,22,22,1,40,6,90,2,1232,100,1735
206,1,23,23,7,10,1,75,1,2681,52.5,1911
206,1,24,24,6,25,4,75,2,2148,55,1038
206,1,25,25,3,90,9,25,1,1707,58.75,645
206,1,26,26,6,90,4,10,1,2027,88.75,1376
206,1,27,27,3,90,1,75,1,1970,100,1181
206,2,1,28,4,10,1,40,1,4233,41.25,916
206,2,2,29,9,60,3,90,2,2166,43.75,1271
206,2,3,30,6,25,7,10,1,2883,60,686
206,2,4,31,7,10,6,90,2,1698,75,1306
206,2,5,32,3,90,9,60,2,2071,71.25,1934
206,2,6,33,7,10,9,60,2,2394,96.25,1125
206,2,7,34,4,75,3,60,1,1958,97.5,1064
206,2,8,35,3,90,7,10,1,1810,60,743
206,2,9,36,4,75,1,40,1,1333,65,1846
206,2,10,37,1,75,9,60,2,3586,86.25,1022
206,2,11,38,3,60,6,25,1,1228,61.25,890
206,2,12,39,1,75,7,10,1,2099,56.25,1265
206,2,13,40,4,10,3,90,2,1818,81.25,1320
206,2,14,41,4,75,6,90,2,1679,100,1238
206,2,15,42,9,60,4,75,1,1828,78.75,976
206,2,16,43,7,40,4,75,2,2130,66.25,1624
206,2,17,44,7,10,3,60,2,2824,62.5,695
206,2,18,45,9,60,6,25,1,1248,100,1587
206,2,19,46,1,75,4,10,1,1778,61.25,1604
206,2,20,47,6,90,7,40,1,1366,81.25,1169
206,2,21,48,9,60,6,90,2,2951,67.5,1739
206,2,22,49,1,40,3,90,2,1625,100,1580
206,2,23,50,6,25,3,60,2,2853,57.5,977
206,2,24,51,4,75,3,90,2,2198,67.5,1053
206,2,25,52,1,40,4,75,2,1949,100,1624
206,2,26,53,3,90,4,75,1,1110,75,1303
206,2,27,54,1,75,9,25,2,1994,60,708
206,3,1,55,3,60,9,25,1,3219,58.75,931
206,3,2,56,6,25,4,10,1,2717,100,1288
206,3,3,57,7,40,3,90,2,1889,58.75,830
206,3,4,58,9,25,7,10,1,1710,100,2404
206,3,5,59,3,60,4,75,2,1635,98.75,1152
206,3,6,60,3,60,1,40,1,1962,100,1116
206,3,7,61,3,90,6,25,1,1414,63.75,830
206,3,8,62,4,10,3,60,2,2438,80,1118
206,3,9,63,7,10,3,90,2,1274,61.25,825
206,3,10,64,3,60,4,10,1,1314,57.5,678
206,3,11,65,1,40,6,25,2,2597,36.25,1378
206,3,12,66,6,25,7,40,2,1970,100,1227
206,3,13,67,3,60,7,40,2,2468,50,717
206,3,14,68,4,75,7,40,1,3149,60,1377
206,3,15,69,4,10,6,90,2,1555,98.75,1156
206,3,16,70,1,40,9,60,2,1228,97.5,1106
206,3,17,71,9,60,1,40,1,1041,100,1202
206,3,18,72,1,40,4,10,1,3841,55,1653
206,3,19,73,3,90,4,10,1,1493,73.75,844
206,3,20,74,1,75,7,40,2,3392,62.5,1427
206,3,21,75,9,25,1,40,1,1584,62.5,1970
206,3,22,76,6,25,9,60,2,1215,100,1738
206,3,23,77,6,90,1,40,1,1376,100,1159
206,3,24,78,7,10,1,40,1,2182,50,515
206,3,25,79,9,25,4,10,1,2550,100,2325
206,3,26,80,3,90,1,40,1,2117,100,1314
206,3,27,81,7,40,4,10,1,1707,100,1273
206,4,1,82,6,90,4,75,1,1920,100,1236
206,4,2,83,9,25,6,90,2,2763,73.75,808
206,4,3,84,6,90,9,60,1,2340,71.25,773
206,4,4,85,4,10,9,25,2,1699,100,1218
206,4,5,86,6,90,3,60,1,1831,100,1139
206,4,6,87,1,75,6,90,2,1671,100,1147
206,4,7,88,4,10,6,25,2,1308,100,1108
206,4,8,89,4,10,7,40,2,2430,100,1141
206,4,9,90,7,40,6,25,1,2739,100,949
206,4,10,91,4,10,9,60,2,1414,100,1204
206,4,11,92,1,75,3,60,2,1763,58.75,653
206,4,12,93,6,25,1,40,1,2229,62.5,823
206,4,13,94,4,75,9,25,1,2819,71.25,1573
206,4,14,95,9,25,7,40,1,2469,56.25,650
206,4,15,96,3,90,7,40,1,1998,70,1122
206,4,16,97,7,40,9,60,2,3049,100,1561
206,4,17,98,4,75,9,60,2,2481,60,697
206,4,18,99,9,60,4,10,1,1177,100,1543
206,4,19,100,7,10,9,25,2,1273,100,1207
206,4,20,101,1,75,6,25,2,1937,60,631
206,4,21,102,9,60,7,40,1,1226,60,859
206,4,22,103,4,75,7,10,1,1816,66.25,845
206,4,23,104,7,40,1,75,1,2036,67.5,1417
206,4,24,105,7,40,3,60,2,1601,50,667
206,4,25,106,6,90,9,25,1,2100,81.25,1587
206,4,26,107,1,40,9,25,1,2632,41.25,1049
206,4,27,108,6,90,1,75,1,1530,96.25,1642
207,1,1,1,1,75,3,60,2,2898,62.5,1774
207,1,2,2,7,40,3,60,1,4522,42.5,1822
207,1,3,3,6,25,3,60,2,3418,63.75,1424
207,1,4,4,4,75,7,10,1,1810,78.75,1761
207,1,5,5,9,25,6,90,2,978,82.5,1842
207,1,6,6,7,40,6,90,2,888,91.25,1464
207,1,7,7,3,60,1,40,1,1412,93.75,1000
207,1,8,8,6,90,3,60,1,1722,100,1331
207,1,9,9,9,60,7,40,1,1304,90,1223
207,1,10,10,7,10,4,75,2,1426,72.5,1150
207,1,11,11,6,90,9,60,2,962,65,1406
207,1,12,12,4,75,6,90,2,1549,100,2159
207,1,13,13,1,40,4,75,2,1337,100,1544
207,1,14,14,7,10,6,25,2,1850,78.75,1121
207,1,15,15,3,90,7,40,1,2423,55,1932
207,1,16,16,3,90,7,10,1,2189,63.75,1507
207,1,17,17,9,25,3,90,2,2373,72.5,1112
207,1,18,18,7,40,4,75,2,1496,63.75,1122
207,1,19,19,7,40,3,90,2,5366,61.25,794
207,1,20,20,9,60,4,75,1,3067,46.25,2123
207,1,21,21,7,10,3,90,2,2854,80,1168
207,1,22,22,9,25,7,40,2,5251,53.75,1699
207,1,23,23,1,40,3,90,2,1697,100,1299
207,1,24,24,3,60,7,10,1,2014,60,956
207,1,25,25,4,10,3,90,2,2479,100,1321
207,1,26,26,3,60,6,25,1,6522,60,919
207,1,27,27,7,10,6,90,2,1052,100,1327
207,2,1,28,1,40,6,25,2,1993,40,1213
207,2,2,29,9,25,3,60,2,4923,62.5,888
207,2,3,30,6,90,1,75,1,1425,100,1477
207,2,4,31,1,75,3,90,2,1566,100,1279
207,2,5,32,3,90,4,75,2,1451,43.75,3952
207,2,6,33,3,90,9,60,2,4216,58.75,1142
207,2,7,34,9,60,6,90,2,1916,82.5,1004
207,2,8,35,1,75,9,25,1,3054,60,1637
207,2,9,36,7,10,9,25,2,2741,100,1349
207,2,10,37,9,25,4,10,1,2387,71.25,914
207,2,11,38,6,90,7,40,1,1927,87.5,1010
207,2,12,39,3,60,9,25,1,2438,66.25,2619
207,2,13,40,7,10,1,75,2,2559,55,4482
207,2,14,41,3,60,4,10,1,2734,81.25,1136
207,2,15,42,1,75,7,40,2,6369,35,1198
207,2,16,43,7,40,9,60,2,1501,100,1303
207,2,17,44,1,75,6,25,2,5973,62.5,1079
207,2,18,45,7,40,6,25,1,3500,100,1334
207,2,19,46,6,25,4,10,1,2260,100,1193
207,2,20,47,3,90,1,75,1,2000,100,1336
207,2,21,48,9,25,4,75,2,2104,65,1085
207,2,22,49,7,10,1,40,2,3813,66.25,909
207,2,23,50,3,90,9,25,1,3549,57.5,877
207,2,24,51,9,60,7,10,1,1877,100,1294
207,2,25,52,1,40,7,10,1,6635,66.25,1080
207,2,26,53,4,10,9,25,2,1559,100,1275
207,2,27,54,4,10,6,90,2,1150,100,1234
207,3,1,55,6,25,1,75,2,4770,46.25,1201
207,3,2,56,1,40,3,60,2,947,100,1146
207,3,3,57,7,10,9,60,2,1095,100,1240
207,3,4,58,3,60,6,90,2,1194,100,1206
207,3,5,59,3,60,7,40,2,2573,50,2046
207,3,6,60,6,25,3,90,2,2340,70,2601
207,3,7,61,1,40,9,60,2,1200,100,1317
207,3,8,62,1,40,9,25,2,4956,60,2026
207,3,9,63,4,10,7,40,2,5270,100,1310
207,3,10,64,1,40,4,10,1,7926,31.25,1423
207,3,11,65,6,90,4,75,1,1444,100,1267
207,3,12,66,9,60,1,40,1,2135,100,1269
207,3,13,67,9,25,7,10,1,4669,100,1178
207,3,14,68,6,25,9,60,2,1713,100,1106
207,3,15,69,6,90,9,25,1,1960,81.25,1280
207,3,16,70,4,10,3,60,2,2324,80,957
207,3,17,71,1,40,6,90,2,1134,100,1259
207,3,18,72,6,90,4,10,1,2549,100,1338
207,3,19,73,1,75,4,10,1,3312,63.75,861
207,3,20,74,4,75,3,90,2,7117,71.25,1219
207,3,21,75,4,75,9,25,1,5031,65,1533
207,3,22,76,4,75,7,40,1,1725,61.25,1246
207,3,23,77,9,25,1,40,1,2998,60,958
207,3,24,78,4,75,3,60,1,2115,98.75,1241
207,3,25,79,7,40,4,10,1,2044,100,1805
207,3,26,80,3,90,6,25,1,4978,50,782
207,3,27,81,7,40,9,25,1,6228,45,703
207,4,1,82,4,10,1,40,2,6986,41.25,782
207,4,2,83,4,10,1,75,2,4781,51.25,1710
207,4,3,84,7,40,1,75,2,5484,26.25,3521
207,4,4,85,9,60,1,75,1,1762,71.25,1315
207,4,5,86,6,90,1,40,1,1416,100,1422
207,4,6,87,3,90,1,40,1,3067,100,1359
207,4,7,88,1,75,6,90,2,1629,100,1516
207,4,8,89,4,75,9,60,2,1365,67.5,4314
207,4,9,90,1,75,7,10,1,6967,57.5,1032
207,4,10,91,6,25,7,40,2,3783,100,1427
207,4,11,92,7,10,3,60,2,5330,60,1066
207,4,12,93,9,60,4,10,1,1071,100,1280
207,4,13,94,3,60,4,75,2,2658,100,1299
207,4,14,95,3,60,1,75,1,2296,63.75,1042
207,4,15,96,9,60,3,90,1,3149,51.25,1590
207,4,16,97,9,25,1,75,1,3292,40,2179
207,4,17,98,6,25,7,10,1,1456,73.75,1255
207,4,18,99,6,90,7,10,1,1507,76.25,1505
207,4,19,100,4,10,6,25,2,2465,100,1449
207,4,20,101,4,75,6,25,1,6432,61.25,999
207,4,21,102,6,25,1,40,1,5666,50,698
207,4,22,103,4,75,1,40,1,2208,100,1331
207,4,23,104,9,60,6,25,1,2831,100,1367
207,4,24,105,4,10,9,60,2,1539,100,1431
207,4,25,106,1,75,9,60,2,1739,62.5,1783
207,4,26,107,6,25,4,75,2,2066,66.25,902
207,4,27,108,3,90,4,10,1,1740,57.5,1998
208,1,1,1,3,90,9,60,2,2802,78.75,1510
208,1,2,2,1,75,3,60,2,9811,83.75,1006
208,1,3,3,1,40,3,90,2,1307,100,1186
208,1,4,4,9,25,3,90,2,2184,97.5,2073
208,1,5,5,6,90,3,60,1,4344,100,1216
208,1,6,6,7,10,3,60,2,3945,100,881
208,1,7,7,3,60,1,40,1,1803,100,1109
208,1,8,8,7,10,4,75,2,1677,62.5,1251
208,1,9,9,9,25,1,75,1,2678,20,1310
208,1,10,10,4,75,3,90,2,2142,97.5,1208
208,1,11,11,9,25,1,40,1,2235,42.5,2216
208,1,12,12,6,25,4,10,1,2915,100,1204
208,1,13,13,7,40,3,60,2,2769,55,762
208,1,14,14,3,60,4,75,2,3080,82.5,1176
208,1,15,15,4,75,7,40,1,2611,83.75,1324
208,1,16,16,9,25,4,75,2,4377,77.5,1044
208,1,17,17,1,40,6,25,2,1959,58.75,667
208,1,18,18,6,25,7,10,1,5255,100,993
208,1,19,19,3,90,6,25,1,3233,91.25,1165
208,1,20,20,7,10,3,90,2,2405,63.75,1169
208,1,21,21,6,90,7,10,1,1618,100,976
208,1,22,22,6,90,9,60,1,2370,100,1060
208,1,23,23,3,60,7,40,2,3503,36.25,2386
208,1,24,24,4,75,1,40,1,5329,100,1252
208,1,25,25,1,40,6,90,2,3990,93.75,1312
208,1,26,26,7,10,1,75,1,4533,13.75,990
208,1,27,27,3,60,4,10,1,2539,91.25,830
208,2,1,28,4,10,6,25,2,2202,100,1641
208,2,2,29,1,40,4,10,2,10857,25,947
208,2,3,30,4,75,9,25,1,2895,81.25,1087
208,2,4,31,7,40,3,90,2,3860,82.5,867
208,2,5,32,3,90,1,75,1,2015,100,3555
208,2,6,33,9,25,4,10,1,1865,100,4708
208,2,7,34,6,25,9,60,2,6062,100,1773
208,2,8,35,3,90,4,10,1,4407,95,1231
208,2,9,36,7,40,6,90,2,1770,100,1744
208,2,10,37,3,90,4,75,1,7668,100,2131
208,2,11,38,9,60,7,40,1,4661,100,1836
208,2,12,39,9,60,1,75,1,3781,100,2298
208,2,13,40,7,10,6,25,2,4184,100,2372
208,2,14,41,3,60,1,75,2,5479,32.5,1811
208,2,15,42,1,40,9,25,2,2854,43.75,4355
208,2,16,43,1,75,4,10,1,3496,33.75,919
208,2,17,44,6,90,9,25,1,1967,100,1887
208,2,18,45,4,10,1,40,2,2261,57.5,868
208,2,19,46,7,10,6,90,2,3032,100,1581
208,2,20,47,9,60,3,90,2,5030,43.75,2464
208,2,21,48,9,60,7,10,1,1668,100,1176
208,2,22,49,6,90,4,10,1,2666,100,1516
208,2,23,50,9,25,7,10,1,2619,100,1185
208,2,24,51,7,10,1,40,1,3010,35,997
208,2,25,52,3,60,7,10,1,12565,56.25,728
208,2,26,53,4,75,3,60,1,1692,100,2292
208,2,27,54,3,60,6,90,2,1455,100,1675
208,3,1,55,1,40,9,60,2,2354,100,1152
208,3,2,56,9,60,6,90,2,7008,85,1008
208,3,3,57,3,90,1,40,1,1554,100,1166
208,3,4,58,1,40,7,10,2,2532,41.25,754
208,3,5,59,7,40,6,25,1,3111,100,1096
208,3,6,60,4,10,3,60,2,1675,100,962
208,3,7,61,1,75,7,10,2,10176,32.5,785
208,3,8,62,4,10,1,75,2,2082,81.25,1985
208,3,9,63,3,90,7,10,1,1580,100,1800
208,3,10,64,1,40,3,60,2,18344,100,1159
208,3,11,65,1,75,7,40,2,1958,86.25,941
208,3,12,66,6,90,1,75,1,1503,100,1184
208,3,13,67,1,75,3,90,2,1276,100,1069
208,3,14,68,9,60,1,40,1,1631,100,913
208,3,15,69,9,60,6,25,1,8479,100,843
208,3,16,70,6,25,1,75,1,4222,40,535
208,3,17,71,4,75,6,25,1,1899,81.25,887
208,3,18,72,4,10,3,90,2,1826,96.25,1092
208,3,19,73,6,25,4,75,2,4091,100,1871
208,3,20,74,7,40,4,75,2,2462,100,1437
208,3,21,75,6,25,7,40,2,3654,100,1507
208,3,22,76,7,40,9,60,2,1822,100,1263
208,3,23,77,9,25,7,40,2,4565,91.25,857
208,3,24,78,1,40,4,75,2,1595,100,1085
208,3,25,79,1,75,9,60,2,3350,81.25,2189
208,3,26,80,6,25,3,60,2,1656,58.75,521
208,3,27,81,3,90,9,25,1,5393,61.25,637
208,4,1,82,1,75,6,90,2,7434,100,1121
208,4,2,83,7,40,9,25,1,2763,82.5,819
208,4,3,84,3,60,6,25,1,2943,77.5,822
208,4,4,85,7,40,1,75,1,3541,40,575
208,4,5,86,4,10,9,60,2,1284,86.25,895
208,4,6,87,4,10,7,40,2,1605,96.25,1023
208,4,7,88,4,10,6,90,2,1228,81.25,1214
208,4,8,89,4,75,9,60,2,2650,58.75,1958
208,4,9,90,7,10,9,25,2,2941,100,974
208,4,10,91,6,25,3,90,2,2140,80,1040
208,4,11,92,7,10,9,60,2,1507,100,1105
208,4,12,93,4,75,6,90,2,1409,100,1076
208,4,13,94,6,90,7,40,1,5084,100,843
208,4,14,95,3,60,9,25,1,2632,56.25,514
208,4,15,96,6,90,1,40,1,1311,100,1056
208,4,16,97,7,40,4,10,1,2546,100,935
208,4,17,98,1,75,6,25,2,6083,8.75,673
208,4,18,99,9,25,6,90,2,2202,58.75,551
208,4,19,100,4,75,7,10,1,4098,98.75,945
208,4,20,101,9,25,3,60,2,1522,57.5,504
208,4,21,102,9,60,4,10,1,1594,100,1092
208,4,22,103,1,75,9,25,2,2182,21.25,554
208,4,23,104,6,90,4,75,1,1561,96.25,1065
208,4,24,105,3,90,7,40,1,4045,100,1179
208,4,25,106,9,60,4,75,1,3815,100,759
208,4,26,107,6,25,1,40,2,3393,33.75,527
208,4,27,108,4,10,9,25,2,1418,100,961
209,1,1,1,3,60,6,25,1,4846,71.25,1102
209,1,2,2,4,75,7,10,1,2683,77.5,957
209,1,3,3,4,10,3,90,2,4431,80,980
209,1,4,4,1,75,9,60,2,2326,87.5,1146
209,1,5,5,1,40,4,10,1,8090,35,2286
209,1,6,6,6,25,4,75,2,1196,82.5,1039
209,1,7,7,1,40,9,60,2,1404,80,916
209,1,8,8,9,25,4,75,2,2648,82.5,874
209,1,9,9,7,10,9,25,2,1816,58.75,653
209,1,10,10,6,90,9,25,1,1670,73.75,749
209,1,11,11,1,75,4,10,1,1599,50,452
209,1,12,12,1,75,6,25,1,2360,58.75,530
209,1,13,13,7,10,1,40,2,1305,62.5,1498
209,1,14,14,9,25,3,90,2,2841,81.25,900
209,1,15,15,4,75,3,90,2,7142,82.5,1445
209,1,16,16,9,25,3,60,2,2376,81.25,846
209,1,17,17,1,75,7,10,1,1084,80,919
209,1,18,18,3,60,9,25,1,1278,77.5,924
209,1,19,19,6,25,1,75,2,847,86.25,837
209,1,20,20,7,10,9,60,2,1143,73.75,706
209,1,21,21,7,10,1,75,2,1327,76.25,859
209,1,22,22,3,60,1,40,1,1609,75,877
209,1,23,23,6,25,4,10,1,1382,70,704
209,1,24,24,9,60,3,90,1,2188,72.5,883
209,1,25,25,3,90,9,25,1,1232,77.5,586
209,1,26,26,7,40,4,10,1,1977,53.75,542
209,1,27,27,9,60,6,90,2,3533,78.75,741
209,2,1,28,3,90,9,60,1,2205,56.25,564
209,2,2,29,3,90,1,40,1,1615,67.5,537
209,2,3,30,4,10,9,60,2,1026,63.75,573
209,2,4,31,6,90,3,60,1,1277,70,659
209,2,5,32,1,75,9,25,2,3818,13.75,1962
209,2,6,33,3,90,1,75,1,1714,92.5,839
209,2,7,34,4,75,9,25,1,2227,57.5,494
209,2,8,35,3,60,4,10,1,1182,58.75,469
209,2,9,36,9,60,4,75,1,5214,43.75,2353
209,2,10,37,7,40,9,25,1,1410,57.5,658
209,2,11,38,4,75,6,25,1,1753,78.75,767
209,2,12,39,1,75,3,90,2,965,86.25,820
209,2,13,40,6,25,9,60,2,2431,80,740
209,2,14,41,9,25,7,40,2,2495,58.75,526
209,2,15,42,9,60,1,75,1,2086,62.5,534
209,2,16,43,4,75,1,40,1,2012,63.75,557
209,2,17,44,7,40,6,90,2,2214,83.75,808
209,2,18,45,9,25,1,75,2,1324,62.5,510
209,2,19,46,1,40,7,10,1,5709,28.75,623
209,2,20,47,3,90,4,75,1,1173,68.75,661
209,2,21,48,6,90,1,40,1,807,57.5,477
209,2,22,49,3,60,7,10,1,1190,65,561
209,2,23,50,4,75,7,40,1,1227,37.5,658
209,2,24,51,7,40,9,60,2,914,67.5,703
209,2,25,52,1,75,7,40,2,2268,6.25,854
209,2,26,53,6,90,7,10,1,973,81.25,729
209,2,27,54,7,10,3,60,2,908,60,592
209,3,1,55,6,25,7,10,1,1077,58.75,682
209,3,2,56,3,90,6,25,1,928,65,573
209,3,3,57,6,90,9,60,1,2000,60,537
209,3,4,58,3,60,1,75,2,1386,62.5,531
209,3,5,59,7,40,3,60,2,976,60,506
209,3,6,60,6,90,7,40,1,770,72.5,783
209,3,7,61,3,60,6,90,2,764,86.25,869
209,3,8,62,3,60,7,40,1,3288,31.25,620
209,3,9,63,4,10,1,40,2,1368,40,1403
209,3,10,64,9,25,6,90,2,1071,87.5,1098
209,3,11,65,1,40,4,75,2,1282,80,837
209,3,12,66,7,10,6,90,2,751,50,231
209,3,13,67,6,25,3,90,2,4777,87.5,749
209,3,14,68,4,10,1,75,2,1150,37.5,550
209,3,15,69,6,90,4,10,1,1279,86.25,824
209,3,16,70,4,75,3,60,1,1315,40,1037
209,3,17,71,6,25,1,40,2,1188,7.5,896
209,3,18,72,4,75,6,90,2,1253,86.25,935
209,3,19,73,9,60,1,40,1,1255,100,782
209,3,20,74,7,40,3,90,2,973,57.5,460
209,3,21,75,9,25,7,10,1,1263,41.25,788
209,3,22,76,9,25,4,10,2,2295,6.25,1060
209,3,23,77,1,75,6,90,2,1711,85,792
209,3,24,78,7,10,6,25,2,1506,40,511
209,3,25,79,3,90,7,40,1,859,87.5,5570
209,3,26,80,1,40,9,25,2,976,38.75,524
209,3,27,81,1,75,3,60,2,2038,35,597
209,4,1,82,6,90,4,75,1,1637,68.75,657
209,4,2,83,7,40,1,75,2,2985,12.5,889
209,4,3,84,9,60,6,25,1,1227,67.5,691
209,4,4,85,7,10,4,75,2,839,80,860
209,4,5,86,4,10,7,40,2,2143,43.75,760
209,4,6,87,3,90,4,10,1,778,83.75,1559
209,4,7,88,7,10,3,90,2,837,75,2117
209,4,8,89,4,75,9,60,2,838,85,845
209,4,9,90,6,25,3,60,2,1396,60,587
209,4,10,91,7,40,4,75,2,1608,91.25,1013
209,4,11,92,1,40,3,90,2,1543,97.5,959
209,4,12,93,7,40,6,25,1,1204,67.5,596
209,4,13,94,4,10,6,25,2,1439,57.5,580
209,4,14,95,3,60,4,75,2,1384,70,654
209,4,15,96,6,25,7,40,2,2006,93.75,1031
209,4,16,97,1,40,3,60,2,1171,85,979
209,4,17,98,9,60,7,10,1,1887,97.5,1116
209,4,18,99,1,40,6,90,2,1935,86.25,952
209,4,19,100,6,90,1,75,1,1594,93.75,1009
209,4,20,101,4,10,6,90,2,1193,86.25,941
209,4,21,102,3,90,7,10,1,2327,83.75,863
209,4,22,103,9,60,4,10,1,1495,87.5,942
209,4,23,104,9,25,1,40,1,1747,12.5,772
209,4,24,105,9,60,7,40,1,1399,91.25,987
209,4,25,106,4,10,3,60,2,1864,66.25,570
209,4,26,107,1,40,6,25,2,1544,31.25,474
209,4,27,108,4,10,9,25,2,1480,57.5,521
210,1,1,1,3,60,4,10,1,1731,73.75,801
210,1,2,2,4,10,3,60,2,1673,60,829
210,1,3,3,9,25,4,75,1,2212,32.5,1745
210,1,4,4,9,25,6,90,2,1470,96.25,1261
210,1,5,5,1,75,6,90,2,1092,100,1426
210,1,6,6,1,40,4,10,1,3287,72.5,1012
210,1,7,7,9,60,1,40,1,1368,78.75,1144
210,1,8,8,3,90,7,10,1,2194,61.25,1009
210,1,9,9,3,90,6,25,1,1673,90,997
210,1,10,10,6,90,1,75,1,1382,98.75,1487
210,1,11,11,3,60,6,90,2,1121,90,1028
210,1,12,12,1,40,9,60,2,1406,82.5,1064
210,1,13,13,4,10,7,40,2,2090,93.75,1204
210,1,14,14,4,10,9,60,2,855,100,897
210,1,15,15,3,90,9,25,1,1481,61.25,1053
210,1,16,16,9,60,4,10,1,1356,75,728
210,1,17,17,4,75,7,10,2,2308,31.25,1008
210,1,18,18,7,10,9,25,2,2663,66.25,870
210,1,19,19,7,10,9,60,2,1181,78.75,954
210,1,20,20,7,10,3,60,2,992,82.5,1309
210,1,21,21,1,75,3,60,2,1759,88.75,955
210,1,22,22,6,25,1,75,1,2070,33.75,765
210,1,23,23,9,25,1,40,1,3591,70,969
210,1,24,24,3,90,1,40,1,746,72.5,714
210,1,25,25,4,10,6,90,2,604,98.75,1073
210,1,26,26,6,90,1,40,1,556,67.5,854
210,1,27,27,1,40,6,90,2,570,93.75,1178
210,2,1,28,9,25,4,10,1,1138,67.5,1003
210,2,2,29,4,75,6,90,2,1765,85,1287
210,2,3,30,4,75,1,40,1,1181,92.5,1021
210,2,4,31,7,10,3,90,2,632,86.25,1664
210,2,5,32,6,25,4,10,1,1458,50,0
210,2,6,33,9,60,7,10,1,1586,71.25,741
210,2,7,34,3,60,6,25,1,2152,87.5,1063
210,2,8,35,4,75,7,40,1,734,61.25,1177
210,2,9,36,1,40,6,25,1,2331,83.75,868
210,2,10,37,7,40,1,75,1,2191,37.5,763
210,2,11,38,4,75,6,25,1,2458,92.5,889
210,2,12,39,9,60,4,75,2,1056,81.25,1230
210,2,13,40,6,25,9,60,2,1680,72.5,649
210,2,14,41,7,40,6,90,2,1405,100,994
210,2,15,42,6,90,4,10,1,1018,100,1109
210,2,16,43,6,25,3,90,2,719,71.25,774
210,2,17,44,6,25,7,10,1,2263,66.25,1002
210,2,18,45,7,10,4,75,2,1654,90,729
210,2,19,46,6,90,9,60,1,1489,93.75,1147
210,2,20,47,1,75,4,10,2,2168,21.25,560
210,2,21,48,7,10,1,75,2,1136,96.25,1732
210,2,22,49,1,40,9,25,2,1904,67.5,625
210,2,23,50,9,60,7,40,1,2051,87.5,846
210,2,24,51,6,90,3,60,1,1038,92.5,889
210,2,25,52,9,25,1,75,2,1776,87.5,1228
210,2,26,53,6,25,7,40,2,1247,92.5,879
210,2,27,54,4,10,6,25,2,839,80,957
210,3,1,55,6,90,4,75,1,882,96.25,1362
210,3,2,56,6,25,4,75,2,1425,80,786
210,3,3,57,7,40,3,60,2,2224,38.75,1114
210,3,4,58,4,10,1,75,2,1752,66.25,726
210,3,5,59,6,90,7,40,1,974,85,969
210,3,6,60,9,25,7,40,2,2594,60,745
210,3,7,61,7,10,1,40,2,2532,61.25,700
210,3,8,62,6,25,1,40,1,2224,30,1176
210,3,9,63,9,25,3,90,2,1613,83.75,915
210,3,10,64,9,60,3,90,1,2584,61.25,855
210,3,11,65,3,60,7,10,1,3020,100,990
210,3,12,66,7,10,6,25,2,2672,65,644
210,3,13,67,1,75,9,25,2,3304,35,662
210,3,14,68,3,60,4,75,1,1478,63.75,833
210,3,15,69,1,75,3,90,2,883,100,1705
210,3,16,70,9,25,7,10,1,2856,71.25,647
210,3,17,71,4,75,3,90,2,1251,87.5,932
210,3,18,72,9,60,6,25,1,1484,96.25,1068
210,3,19,73,1,75,9,60,2,1648,68.75,906
210,3,20,74,9,25,3,60,2,2356,57.5,559
210,3,21,75,4,75,9,60,1,2909,90,941
210,3,22,76,1,40,3,90,2,1303,100,967
210,3,23,77,1,40,7,10,2,2155,40,781
210,3,24,78,4,75,9,25,1,2900,62.5,638
210,3,25,79,7,40,4,75,2,3032,81.25,1538
210,3,26,80,3,90,7,40,1,2089,85,849
210,3,27,81,4,10,9,25,2,858,80,800
210,4,1,82,3,90,1,75,1,1443,96.25,847
210,4,2,83,9,60,1,75,1,2004,77.5,481
210,4,3,84,3,90,9,60,2,1451,85,852
210,4,4,85,3,90,4,75,1,1606,87.5,963
210,4,5,86,3,60,1,75,2,1383,61.25,679
210,4,6,87,7,40,4,10,1,2405,81.25,1058
210,4,7,88,7,40,3,90,2,985,81.25,842
210,4,8,89,6,90,9,25,2,2617,31.25,612
210,4,9,90,1,40,3,60,2,1088,68.75,664
210,4,10,91,1,75,7,10,2,2377,1.25,1528
210,4,11,92,7,10,6,90,2,611,86.25,946
210,4,12,93,3,60,1,40,1,1120,86.25,1234
210,4,13,94,1,75,6,25,2,1916,82.5,949
210,4,14,95,1,75,7,40,2,543,73.75,865
210,4,15,96,4,10,3,90,2,1090,100,1296
210,4,16,97,3,90,4,10,1,1121,95,762
210,4,17,98,4,10,1,40,2,2314,70,632
210,4,18,99,6,90,7,10,1,1223,88.75,1092
210,4,19,100,3,60,9,25,2,1743,31.25,677
210,4,20,101,1,40,4,75,2,821,81.25,1874
210,4,21,102,6,25,3,60,1,1889,33.75,1056
210,4,22,103,9,60,6,90,2,793,93.75,1004
210,4,23,104,4,75,3,60,1,1342,87.5,960
210,4,24,105,3,60,7,40,1,2129,67.5,774
210,4,25,106,7,40,9,25,2,1750,26.25,729
210,4,26,107,7,40,9,60,1,1621,35,2531
210,4,27,108,7,40,6,25,2,2695,22.5,1330
211,1,1,1,1,75,7,10,1,6838,43.75,3126
211,1,2,2,4,10,9,25,2,4836,100,3514
211,1,3,3,1,75,6,90,2,4888,100,1143
211,1,4,4,7,10,1,40,1,3284,40,6005
211,1,5,5,6,90,7,10,1,4034,88.75,3449
211,1,6,6,4,75,3,90,2,13292,86.25,1863
211,1,7,7,3,90,4,10,1,5455,86.25,1743
211,1,8,8,4,75,7,10,1,4779,70,6013
211,1,9,9,1,40,4,75,2,5102,83.75,1313
211,1,10,10,1,40,3,90,2,2545,100,1561
211,1,11,11,7,10,3,60,2,6897,62.5,772
211,1,12,12,3,60,9,25,2,4495,35,1667
211,1,13,13,1,40,3,60,2,1877,100,1292
211,1,14,14,3,90,9,60,2,5432,55,1887
211,1,15,15,3,90,6,25,1,29114,100,5349
211,1,16,16,7,40,3,90,2,13725,100,4693
211,1,17,17,3,60,4,75,2,3749,100,1596
211,1,18,18,3,60,7,10,1,8329,80,826
211,1,19,19,1,75,9,60,2,4249,80,1516
211,1,20,20,4,75,1,40,1,2904,100,735
211,1,21,21,7,10,9,25,2,2058,100,1063
211,1,22,22,1,75,6,25,2,6014,33.75,919
211,1,23,23,3,90,4,75,2,8427,50,0
211,1,24,24,1,75,7,40,2,3930,12.5,1791
211,1,25,25,6,25,3,90,2,15325,100,1973
211,1,26,26,9,25,7,10,2,3086,0,956
211,1,27,27,1,40,6,90,2,1311,100,1475
211,2,1,28,4,10,3,60,2,1548,83.75,1610
211,2,2,29,9,25,3,90,1,1714,31.25,639
211,2,3,30,4,10,3,90,2,2646,85,927
211,2,4,31,4,10,1,40,2,6924,21.25,3587
211,2,5,32,4,10,6,25,2,4265,76.25,1013
211,2,6,33,4,75,7,40,2,974,37.5,1513
211,2,7,34,3,90,7,10,1,24699,93.75,5019
211,2,8,35,7,10,1,75,2,8201,82.5,2276
211,2,9,36,3,60,6,25,1,4590,58.75,1073
211,2,10,37,9,60,4,10,1,2324,100,6013
211,2,11,38,7,10,3,90,2,4029,67.5,1500
211,2,12,39,1,40,9,25,2,6711,23.75,4166
211,2,13,40,1,40,9,60,2,4663,100,1721
211,2,14,41,3,90,7,40,2,2290,37.5,681
211,2,15,42,6,25,7,10,1,2123,26.25,1700
211,2,16,43,6,25,4,10,1,2432,57.5,2077
211,2,17,44,4,75,6,90,2,2708,50,564
211,2,18,45,6,90,1,75,1,1561,100,692
211,2,19,46,7,10,9,60,2,1238,77.5,463
211,2,20,47,6,90,4,10,1,1725,100,995
211,2,21,48,1,40,7,10,1,5239,30,573
211,2,22,49,9,60,1,75,1,3135,60,640
211,2,23,50,4,10,6,90,2,2380,97.5,674
211,2,24,51,3,60,1,75,1,10209,56.25,1155
211,2,25,52,1,75,9,25,1,2665,81.25,3298
211,2,26,53,7,40,1,75,1,3833,33.75,660
211,2,27,54,9,60,6,90,1,3721,51.25,2244
211,3,1,55,7,10,6,25,2,15588,18.75,4908
211,3,2,56,6,25,1,75,1,9455,25,6003
211,3,3,57,9,25,4,10,1,9495,16.25,3389
211,3,4,58,7,10,6,90,2,1294,88.75,4870
211,3,5,59,7,40,6,90,2,2110,90,2985
211,3,6,60,7,40,4,75,2,6827,76.25,6007
211,3,7,61,1,40,4,10,1,8981,37.5,2215
211,3,8,62,7,40,3,60,1,5396,35,1020
211,3,9,63,1,40,6,25,2,7048,12.5,3044
211,3,10,64,6,25,7,40,2,3583,66.25,6007
211,3,11,65,1,75,4,10,1,5858,76.25,3950
211,3,12,66,3,90,9,25,1,5581,91.25,2054
211,3,13,67,4,10,9,60,2,1406,65,6012
211,3,14,68,4,10,7,40,2,1704,32.5,2287
211,3,15,69,6,90,1,40,1,1876,91.25,2216
211,3,16,70,4,75,9,25,1,6011,73.75,6002
211,3,17,71,9,25,7,40,2,5976,23.75,1308
211,3,18,72,6,90,4,75,1,7783,88.75,2125
211,3,19,73,9,25,1,75,1,5822,20,3200
211,3,20,74,6,25,4,75,2,4234,72.5,1394
211,3,21,75,4,75,9,60,2,1809,50,6009
211,3,22,76,4,75,6,25,1,28235,71.25,1735
211,3,23,77,6,25,9,60,2,1155,63.75,1231
211,3,24,78,7,40,9,60,2,3813,50,6011
211,3,25,79,3,60,6,90,2,3256,92.5,2641
211,3,26,80,4,10,1,75,2,23497,72.5,4616
211,3,27,81,3,60,1,40,1,3890,57.5,2975
211,4,1,82,3,60,7,40,1,4140,56.25,2407
211,4,2,83,3,90,1,75,1,1735,91.25,2721
211,4,3,84,9,60,4,75,2,8371,68.75,3435
211,4,4,85,6,90,9,25,1,2559,90,4054
211,4,5,86,9,25,4,75,2,21084,68.75,1562
211,4,6,87,9,25,1,40,1,5106,17.5,3299
211,4,7,88,6,90,7,40,1,2567,87.5,1205
211,4,8,89,1,75,3,60,2,9559,57.5,4196
211,4,9,90,9,60,7,10,1,2022,56.25,1417
211,4,10,91,6,25,3,60,2,4540,57.5,1541
211,4,11,92,7,40,9,25,1,4558,32.5,3829
211,4,12,93,9,60,1,40,1,1518,57.5,1988
211,4,13,94,7,10,4,75,2,2006,68.75,3755
211,4,14,95,9,25,3,60,2,23711,57.5,2306
211,4,15,96,6,25,1,40,1,2626,17.5,2383
211,4,16,97,3,60,4,10,2,1259,8.75,4888
211,4,17,98,6,90,3,60,1,1789,92.5,4810
211,4,18,99,6,90,9,60,1,4073,87.5,1791
211,4,19,100,9,60,7,40,1,2133,90,3847
211,4,20,101,9,25,6,90,2,1170,90,1367
211,4,21,102,9,60,6,25,2,1613,15,5167
211,4,22,103,7,40,6,25,1,8891,32.5,2722
211,4,23,104,9,60,3,90,1,6535,61.25,1133
211,4,24,105,7,40,4,10,1,1224,31.25,3670
211,4,25,106,1,75,3,90,2,2763,91.25,1410
211,4,26,107,4,75,3,60,1,2480,50,6006
211,4,27,108,3,90,1,40,1,1548,90,1957
212,1,1,1,9,60,4,75,1,4859,75,3783
212,1,2,2,9,25,4,75,2,1489,60,2014
212,1,3,3,9,60,6,25,1,3745,70,1363
212,1,4,4,4,75,1,40,1,6006,63.75,1226
212,1,5,5,6,90,3,60,2,2365,38.75,1586
212,1,6,6,3,90,4,10,1,2830,63.75,1541
212,1,7,7,1,75,7,10,2,2309,70,1584
212,1,8,8,1,40,3,90,2,1572,92.5,1347
212,1,9,9,9,60,6,90,2,1894,90,1153
212,1,10,10,6,25,3,90,1,3601,57.5,1066
212,1,11,11,3,90,1,75,1,11761,58.75,5668
212,1,12,12,9,25,4,10,1,2142,33.75,1883
212,1,13,13,6,25,1,75,1,4728,36.25,1846
212,1,14,14,3,60,4,10,1,1487,46.25,2412
212,1,15,15,4,10,3,60,2,1501,55,2170
212,1,16,16,6,90,4,75,1,1865,83.75,1132
212,1,17,17,4,10,1,40,2,3567,40,1227
212,1,18,18,6,25,9,60,2,1665,57.5,1113
212,1,19,19,4,10,6,25,2,7473,28.75,1414
212,1,20,20,9,25,7,40,2,2769,46.25,1451
212,1,21,21,7,10,1,40,1,1782,16.25,972
212,1,22,22,6,25,4,10,1,1759,27.5,1589
212,1,23,23,6,25,3,60,1,5053,31.25,2136
212,1,24,24,4,75,9,60,1,1712,76.25,939
212,1,25,25,7,10,6,25,2,1263,27.5,987
212,1,26,26,1,40,6,90,2,2151,87.5,1204
212,1,27,27,9,60,1,40,1,1614,60,1322
212,2,1,28,1,75,4,10,2,5313,17.5,1484
212,2,2,29,7,10,3,90,2,1287,88.75,966
212,2,3,30,7,10,3,60,1,3309,13.75,992
212,2,4,31,4,75,9,25,1,5132,81.25,857
212,2,5,32,1,75,7,40,2,1962,42.5,1366
212,2,6,33,9,25,3,60,1,3394,21.25,812
212,2,7,34,3,90,9,60,1,6207,88.75,1563
212,2,8,35,9,25,1,40,1,5496,22.5,860
212,2,9,36,4,75,7,10,1,3017,76.25,749
212,2,10,37,7,10,9,25,2,2815,26.25,952
212,2,11,38,4,75,6,90,2,1851,87.5,1103
212,2,12,39,6,90,1,75,1,1611,85,1075
212,2,13,40,3,60,6,90,2,1360,88.75,1143
212,2,14,41,7,40,4,75,2,2718,80,898
212,2,15,42,7,10,6,90,2,1087,90,1114
212,2,16,43,9,60,4,10,1,2561,66.25,768
212,2,17,44,7,40,9,60,2,1250,58.75,801
212,2,18,45,4,75,3,60,1,1380,73.75,1275
212,2,19,46,1,75,6,25,2,1293,27.5,873
212,2,20,47,3,90,9,25,2,1424,22.5,975
212,2,21,48,6,25,7,40,2,2560,41.25,744
212,2,22,49,1,40,6,25,2,1623,27.5,924
212,2,23,50,6,90,9,25,1,2006,86.25,915
212,2,24,51,9,25,6,90,2,1849,82.5,879
212,2,25,52,6,90,1,40,1,2290,86.25,1098
212,2,26,53,4,10,9,60,2,6040,82.5,1344
212,2,27,54,7,40,1,75,1,1364,41.25,680
212,3,1,55,3,60,9,25,2,3025,26.25,780
212,3,2,56,3,90,1,40,1,2096,90,866
212,3,3,57,9,60,1,75,1,5640,60,766
212,3,4,58,3,90,4,75,1,1563,87.5,920
212,3,5,59,6,25,7,10,1,2777,26.25,996
212,3,6,60,7,40,6,90,2,1103,91.25,891
212,3,7,61,9,25,3,90,1,2682,21.25,733
212,3,8,62,1,40,3,60,2,2222,62.5,673
212,3,9,63,9,60,7,40,1,906,62.5,645
212,3,10,64,3,60,7,40,1,2574,61.25,774
212,3,11,65,7,40,3,60,1,1046,31.25,806
212,3,12,66,1,40,4,75,2,1461,77.5,731
212,3,13,67,7,40,6,25,1,1942,41.25,660
212,3,14,68,1,40,7,10,2,1192,11.25,903
212,3,15,69,3,60,6,25,1,1092,65,641
212,3,16,70,1,75,3,60,2,1257,66.25,659
212,3,17,71,7,10,1,75,1,2814,12.5,924
212,3,18,72,1,40,9,60,2,1091,63.75,689
212,3,19,73,4,10,6,90,2,928,88.75,1005
212,3,20,74,6,25,1,40,1,1212,25,1473
212,3,21,75,1,40,9,25,2,1522,21.25,772
212,3,22,76,7,10,9,60,2,1382,63.75,579
212,3,23,77,3,90,6,25,1,2961,95,830
212,3,24,78,4,75,6,25,1,2037,77.5,773
212,3,25,79,9,60,7,10,2,1047,22.5,979
212,3,26,80,6,90,7,40,1,1215,83.75,1681
212,3,27,81,9,60,3,90,1,1138,61.25,763
212,4,1,82,3,60,7,10,1,1401,58.75,796
212,4,2,83,6,25,4,75,2,1460,73.75,875
212,4,3,84,6,90,4,10,1,1038,96.25,910
212,4,4,85,4,10,1,75,1,1316,7.5,1352
212,4,5,86,9,25,7,10,1,1338,25,829
212,4,6,87,3,60,1,40,1,1127,60,552
212,4,7,88,4,75,3,90,2,1354,83.75,963
212,4,8,89,3,60,4,75,2,2377,80,887
212,4,9,90,1,75,6,90,2,994,91.25,871
212,4,10,91,4,10,3,90,2,1056,90,1311
212,4,11,92,7,40,4,10,1,933,38.75,1025
212,4,12,93,7,40,9,25,1,1607,37.5,745
212,4,13,94,1,40,4,10,2,1034,12.5,1109
212,4,14,95,7,40,3,90,2,2039,96.25,909
212,4,15,96,9,25,1,75,1,1317,25,2596
212,4,16,97,3,60,1,75,1,1190,62.5,1529
212,4,17,98,6,90,9,60,1,1023,86.25,1644
212,4,18,99,4,10,9,25,2,1000,15,762
212,4,19,100,3,90,7,40,1,1481,91.25,1113
212,4,20,101,1,75,9,25,2,1898,26.25,1449
212,4,21,102,4,75,7,40,1,6858,82.5,903
212,4,22,103,1,75,3,90,2,1086,87.5,976
212,4,23,104,6,90,7,10,1,664,57.5,1385
212,4,24,105,1,75,9,60,2,1008,60,647
212,4,25,106,7,10,4,75,1,1996,12.5,976
212,4,26,107,4,10,7,40,2,1906,40,555
212,4,27,108,3,90,7,10,1,952,87.5,940
213,1,1,1,7,10,6,25,2,7093,60,1501
213,1,2,2,4,10,9,25,2,1748,97.5,1187
213,1,3,3,3,90,7,40,1,4832,41.25,1047
213,1,4,4,3,60,6,25,1,5170,21.25,1076
213,1,5,5,4,75,7,40,1,3254,18.75,886
213,1,6,6,9,60,3,90,1,4323,33.75,835
213,1,7,7,6,90,7,40,1,2493,77.5,994
213,1,8,8,3,60,1,75,1,2665,61.25,706
213,1,9,9,4,75,9,60,2,2913,55,1797
213,1,10,10,3,90,1,40,1,2893,100,1097
213,1,11,11,1,40,7,10,2,4778,27.5,2455
213,1,12,12,7,40,1,75,1,2059,57.5,661
213,1,13,13,3,60,4,75,2,1733,100,1171
213,1,14,14,1,75,3,90,2,1937,100,1301
213,1,15,15,4,75,6,90,2,2446,100,1361
213,1,16,16,7,40,9,25,1,3025,42.5,1701
213,1,17,17,6,90,3,60,1,1934,100,1353
213,1,18,18,6,25,9,60,2,2609,100,2117
213,1,19,19,3,90,9,25,1,6606,33.75,2149
213,1,20,20,9,60,1,40,1,1981,100,2342
213,1,21,21,9,25,3,90,1,3654,7.5,890
213,1,22,22,3,90,6,25,1,4152,30,1325
213,1,23,23,7,10,9,60,2,3229,100,1546
213,1,24,24,9,60,7,10,1,2441,100,1250
213,1,25,25,9,25,7,40,2,3050,56.25,3130
213,1,26,26,1,40,6,90,2,1936,100,4696
213,1,27,27,1,75,9,60,2,2252,63.75,936
213,2,1,28,3,90,9,60,2,2693,57.5,3371
213,2,2,29,4,75,3,60,1,2161,100,1278
213,2,3,30,4,75,7,10,1,5188,57.5,1093
213,2,4,31,3,90,4,75,1,6815,40,2056
213,2,5,32,6,90,4,75,1,3418,100,5822
213,2,6,33,1,40,9,25,2,1917,78.75,2458
213,2,7,34,7,40,3,60,1,3409,32.5,967
213,2,8,35,4,10,9,60,2,2445,100,1828
213,2,9,36,7,40,4,10,1,2224,100,1284
213,2,10,37,9,25,7,10,1,4330,100,1686
213,2,11,38,7,40,6,25,1,2260,100,1580
213,2,12,39,4,10,3,90,2,2375,90,1514
213,2,13,40,1,75,7,10,1,5123,31.25,726
213,2,14,41,6,90,9,25,1,2909,67.5,647
213,2,15,42,4,75,1,40,1,4124,100,1489
213,2,16,43,1,40,4,75,2,1842,100,1579
213,2,17,44,9,25,4,10,1,1880,100,1141
213,2,18,45,7,10,6,90,2,2933,86.25,1306
213,2,19,46,3,60,6,90,2,2487,50,0
213,2,20,47,9,60,1,75,1,4532,70,1289
213,2,21,48,4,75,6,25,1,5050,77.5,1515
213,2,22,49,1,40,9,60,2,2144,100,2231
213,2,23,50,6,90,7,10,1,8252,83.75,938
213,2,24,51,4,10,3,60,2,2809,42.5,1164
213,2,25,52,9,25,3,60,1,3894,12.5,1886
213,2,26,53,4,10,6,25,2,2062,100,1427
213,2,27,54,7,10,1,75,1,7759,12.5,1599
213,3,1,55,6,25,3,60,2,3941,25,2012
213,3,2,56,9,25,1,75,1,2934,36.25,939
213,3,3,57,7,10,3,60,2,3536,32.5,824
213,3,4,58,1,40,4,10,2,6580,0,1272
213,3,5,59,1,75,9,25,2,2315,10,922
213,3,6,60,4,10,7,40,2,4689,31.25,790
213,3,7,61,3,60,7,10,1,3221,1.25,1020
213,3,8,62,3,60,9,25,2,5655,15,5892
213,3,9,63,4,10,1,75,2,3303,37.5,604
213,3,10,64,7,40,4,75,2,3743,32.5,699
213,3,11,65,4,10,6,90,2,1184,72.5,1335
213,3,12,66,6,25,7,10,1,4123,65,1105
213,3,13,67,9,60,6,25,1,2043,100,1312
213,3,14,68,9,60,7,40,1,2427,100,1831
213,3,15,69,1,75,6,25,2,6435,60,1368
213,3,16,70,6,25,3,90,2,2964,43.75,892
213,3,17,71,3,60,7,40,2,2046,87.5,941
213,3,18,72,7,40,9,60,2,1190,100,1229
213,3,19,73,6,90,4,10,1,1503,100,832
213,3,20,74,9,60,4,10,1,4545,100,1134
213,3,21,75,3,60,4,10,1,1397,100,1390
213,3,22,76,7,10,1,40,1,2566,6.25,1692
213,3,23,77,3,90,1,75,1,1838,100,1216
213,3,24,78,3,90,7,10,1,2539,37.5,616
213,3,25,79,4,75,9,25,2,2844,50,0
213,3,26,80,6,90,9,60,1,4890,50,0
213,3,27,81,7,10,4,75,2,4890,33.75,1069
213,4,1,82,6,25,1,75,1,2372,31.25,799
213,4,2,83,6,25,1,40,1,2396,27.5,708
213,4,3,84,7,10,3,90,2,2855,56.25,835
213,4,4,85,6,25,4,75,2,2079,58.75,607
213,4,5,86,1,75,7,40,2,1980,67.5,806
213,4,6,87,9,25,4,75,1,3924,11.25,1253
213,4,7,88,1,75,6,90,2,2638,100,1336
213,4,8,89,6,25,4,10,1,2034,100,1170
213,4,9,90,6,25,7,40,2,3129,100,1197
213,4,10,91,1,75,4,10,2,3735,63.75,4116
213,4,11,92,7,10,9,25,2,1918,100,1304
213,4,12,93,9,25,1,40,1,1612,65,640
213,4,13,94,6,90,1,75,1,1523,100,1147
213,4,14,95,1,40,3,90,2,2430,100,2512
213,4,15,96,6,90,1,40,1,1380,100,1275
213,4,16,97,1,75,3,60,2,2456,58.75,882
213,4,17,98,7,40,6,90,2,1969,68.75,699
213,4,18,99,3,60,1,40,1,2407,100,2379
213,4,19,100,1,40,3,60,2,3944,100,1316
213,4,20,101,7,40,3,90,1,3359,35,2219
213,4,21,102,9,60,6,90,1,3312,23.75,1080
213,4,22,103,9,25,6,90,2,2498,58.75,623
213,4,23,104,3,90,4,10,1,2148,82.5,939
213,4,24,105,4,75,3,90,1,3528,43.75,1550
213,4,25,106,4,10,1,40,1,2773,62.5,3457
213,4,26,107,1,40,6,25,2,5106,35,2345
213,4,27,108,9,60,4,75,1,2210,82.5,878
214,1,1,1,9,25,6,90,2,1519,100,1130
214,1,2,2,1,75,4,10,1,2195,90,1210
214,1,3,3,7,40,4,10,1,3171,65,1540
214,1,4,4,3,60,6,25,1,3169,45,1441
214,1,5,5,4,75,6,25,1,1792,100,1144
214,1,6,6,3,90,7,10,1,1612,100,2948
214,1,7,7,3,60,6,90,2,2606,87.5,1200
214,1,8,8,4,10,1,40,2,2275,62.5,812
214,1,9,9,9,60,1,40,1,2640,100,1579
214,1,10,10,7,10,3,90,2,1136,100,1751
214,1,11,11,3,90,9,25,1,3228,70,996
214,1,12,12,4,75,3,60,1,4064,100,1098
214,1,13,13,7,10,9,25,2,2504,41.25,833
214,1,14,14,6,90,7,40,1,2226,72.5,945
214,1,15,15,6,90,4,10,1,2266,93.75,1241
214,1,16,16,1,40,4,75,2,2538,91.25,1034
214,1,17,17,7,40,3,90,2,2177,86.25,894
214,1,18,18,4,75,1,40,1,1581,90,1040
214,1,19,19,1,75,3,90,2,2604,100,952
214,1,20,20,9,25,4,75,2,2035,40,1922
214,1,21,21,1,75,9,25,2,4033,20,1178
214,1,22,22,1,75,6,90,2,2537,80,953
214,1,23,23,1,75,3,60,2,3122,36.25,869
214,1,24,24,6,25,1,40,2,3296,62.5,1917
214,1,25,25,4,10,6,25,2,2079,100,1745
214,1,26,26,6,90,9,60,1,4642,85,987
214,1,27,27,3,60,1,40,1,4609,82.5,937
214,2,1,28,1,75,6,25,1,3492,77.5,1146
214,2,2,29,7,40,1,75,1,2555,21.25,968
214,2,3,30,6,25,7,10,1,4538,95,1157
214,2,4,31,3,60,4,75,2,2383,100,973
214,2,5,32,1,40,4,10,1,1935,73.75,736
214,2,6,33,4,10,6,90,2,1507,100,1031
214,2,7,34,6,25,4,75,2,2413,62.5,743
214,2,8,35,3,90,7,40,1,1878,87.5,1060
214,2,9,36,7,10,9,60,2,2287,73.75,868
214,2,10,37,7,40,6,90,2,1792,100,1297
214,2,11,38,4,75,9,25,1,1756,72.5,931
214,2,12,39,1,40,6,25,2,5399,25,764
214,2,13,40,7,40,9,25,1,4103,72.5,707
214,2,14,41,4,10,7,40,2,1984,86.25,803
214,2,15,42,9,25,3,90,2,2576,100,813
214,2,16,43,6,25,7,40,2,2582,72.5,824
214,2,17,44,3,90,6,25,1,3988,88.75,755
214,2,18,45,3,60,7,10,1,3000,71.25,756
214,2,19,46,3,60,9,25,1,2230,71.25,774
214,2,20,47,6,90,1,40,1,1838,100,1101
214,2,21,48,7,10,6,90,2,1543,100,1076
214,2,22,49,4,75,7,40,1,2135,41.25,886
214,2,23,50,4,10,9,60,2,2252,100,1505
214,2,24,51,6,90,3,60,1,2754,70,751
214,2,25,52,3,90,1,40,1,2067,100,869
214,2,26,53,1,40,9,60,2,1675,100,977
214,2,27,54,4,75,7,10,1,4516,85,1147
214,3,1,55,3,60,1,75,1,3668,70,1294
214,3,2,56,7,10,1,40,2,7598,22.5,1477
214,3,3,57,1,40,9,25,2,6232,1.25,919
214,3,4,58,9,25,1,75,2,1474,90,977
214,3,5,59,7,40,4,75,2,2266,75,822
214,3,6,60,6,25,1,75,2,2102,71.25,669
214,3,7,61,3,90,4,10,1,2391,100,749
214,3,8,62,9,60,4,10,1,1919,92.5,885
214,3,9,63,9,25,1,40,2,1895,57.5,826
214,3,10,64,1,40,6,90,2,2212,100,1046
214,3,11,65,3,90,1,75,1,2453,98.75,985
214,3,12,66,7,10,6,25,2,2274,83.75,898
214,3,13,67,1,40,3,60,2,1538,100,1051
214,3,14,68,9,60,1,75,1,2425,36.25,896
214,3,15,69,1,75,7,10,1,2883,82.5,873
214,3,16,70,9,60,7,10,1,1882,100,972
214,3,17,71,7,40,6,25,1,2623,72.5,649
214,3,18,72,6,90,1,75,1,2354,100,1118
214,3,19,73,3,60,7,40,2,1908,0,2651
214,3,20,74,7,10,4,75,2,4321,96.25,1074
214,3,21,75,6,25,4,10,1,2161,78.75,977
214,3,22,76,7,40,3,60,2,1553,92.5,1334
214,3,23,77,1,40,7,10,1,1846,71.25,741
214,3,24,78,9,60,3,90,2,2574,88.75,1232
214,3,25,79,9,25,3,60,2,4306,78.75,670
214,3,26,80,4,10,3,90,2,1582,88.75,1005
214,3,27,81,7,40,9,60,2,3653,100,906
214,4,1,82,9,25,4,10,1,3646,97.5,956
214,4,2,83,6,90,4,75,1,1832,100,1055
214,4,3,84,6,25,3,90,2,1859,92.5,828
214,4,4,85,1,75,7,40,1,2495,75,760
214,4,5,86,6,90,7,10,1,2213,100,1024
214,4,6,87,9,60,4,75,1,3162,41.25,604
214,4,7,88,4,75,3,90,2,1598,100,905
214,4,8,89,7,10,1,75,2,4818,93.75,2165
214,4,9,90,6,25,3,60,2,4463,83.75,697
214,4,10,91,4,75,9,60,1,5090,75,607
214,4,11,92,9,25,7,40,2,1756,68.75,630
214,4,12,93,3,90,9,60,1,2077,71.25,658
214,4,13,94,1,75,9,60,2,3257,33.75,1103
214,4,14,95,1,40,3,90,2,1551,100,898
214,4,15,96,3,60,4,10,1,3324,61.25,2020
214,4,16,97,4,10,3,60,2,1533,83.75,702
214,4,17,98,6,90,9,25,1,2350,100,955
214,4,18,99,9,60,6,25,1,1432,100,954
214,4,19,100,4,10,9,25,2,1817,86.25,736
214,4,20,101,4,10,1,75,2,3140,77.5,1035
214,4,21,102,4,75,6,90,2,10902,71.25,1447
214,4,22,103,9,60,6,90,2,4844,93.75,800
214,4,23,104,7,10,3,60,2,1956,88.75,3757
214,4,24,105,9,60,7,40,1,1350,70,601
214,4,25,106,6,25,9,60,2,1368,68.75,616
214,4,26,107,3,90,4,75,1,1955,100,915
214,4,27,108,9,25,7,10,1,1608,100,861
215,1,1,1,9,60,4,10,1,3304,100,1818
215,1,2,2,1,75,6,90,2,2432,100,2485
215,1,3,3,4,10,1,75,2,2646,100,1654
215,1,4,4,7,10,1,75,2,2454,27.5,2716
215,1,5,5,1,40,4,10,2,2880,100,1473
215,1,6,6,1,75,4,10,1,2218,100,2233
215,1,7,7,9,60,7,40,1,2467,100,1532
215,1,8,8,3,60,9,25,2,4223,100,1599
215,1,9,9,7,10,1,40,1,5182,100,1561
215,1,10,10,1,75,7,10,2,3140,100,1688
215,1,11,11,7,10,3,90,2,2372,100,1856
215,1,12,12,4,75,7,10,2,2232,100,1580
215,1,13,13,3,90,7,40,2,1572,100,1429
215,1,14,14,3,60,6,25,2,2095,100,1254
215,1,15,15,1,75,6,25,2,1509,100,1506
215,1,16,16,7,40,6,25,2,796,100,1551
215,1,17,17,9,60,1,75,1,1997,100,1401
215,1,18,18,1,40,9,25,2,2051,100,1266
215,1,19,19,4,75,6,25,2,1770,100,1376
215,1,20,20,6,25,4,75,1,1948,100,1282
215,1,21,21,4,75,3,60,1,3925,50,338
215,1,22,22,1,40,9,60,2,2071,100,1284
215,1,23,23,3,90,9,25,2,1765,100,1487
215,1,24,24,3,90,9,60,2,1868,100,1062
215,1,25,25,3,90,4,75,1,3674,100,1461
215,1,26,26,7,40,1,75,1,3471,100,989
215,1,27,27,7,10,9,60,2,3370,100,1394
215,2,1,28,6,90,7,10,1,2826,50,0
215,2,2,29,4,10,3,90,2,2062,100,4251
215,2,3,30,9,60,7,10,1,2370,100,2868
215,2,4,31,4,75,9,60,2,2963,50,404
215,2,5,32,4,75,7,40,2,2903,100,4863
215,2,6,33,3,60,7,40,2,2521,100,1822
215,2,7,34,9,25,3,90,2,4814,100,2495
215,2,8,35,4,10,7,40,2,1964,100,1437
215,2,9,36,3,60,7,10,2,3296,100,1473
215,2,10,37,1,40,3,60,2,1899,100,1297
215,2,11,38,1,40,7,10,2,1786,50,0
215,2,12,39,1,75,3,60,2,1581,100,3632
215,2,13,40,7,40,9,60,2,1787,100,2676
215,2,14,41,4,10,1,40,2,1715,100,1534
215,2,15,42,9,25,4,10,1,2064,100,1669
215,2,16,43,3,60,1,75,1,7462,100,1252
215,2,17,44,6,90,9,60,1,2985,100,1266
215,2,18,45,6,90,4,10,1,1490,100,1272
215,2,19,46,3,90,6,25,1,4854,100,1086
215,2,20,47,1,75,9,25,2,3023,100,1329
215,2,21,48,6,90,7,40,1,3020,100,4636
215,2,22,49,9,25,1,75,1,802,50,299
215,2,23,50,7,40,3,60,1,1298,100,1014
215,2,24,51,3,90,4,10,1,965,97.5,931
215,2,25,52,4,10,9,25,2,2540,100,925
215,2,26,53,7,10,4,75,2,2845,100,1188
215,2,27,54,3,60,4,10,1,2360,50,0
215,3,1,55,9,60,6,25,1,2455,100,1010
215,3,2,56,3,60,6,90,2,2523,100,827
215,3,3,57,6,90,3,60,1,1635,95,728
215,3,4,58,3,60,4,75,2,1556,100,864
215,3,5,59,4,10,6,25,2,1957,98.75,892
215,3,6,60,6,25,7,40,2,1905,91.25,1310
215,3,7,61,9,60,4,75,2,1167,100,812
215,3,8,62,7,10,6,25,2,1056,100,1090
215,3,9,63,3,90,1,40,1,3308,98.75,1261
215,3,10,64,6,25,4,10,1,1968,100,1197
215,3,11,65,1,40,3,90,2,1312,96.25,751
215,3,12,66,6,90,9,25,2,3358,100,1378
215,3,13,67,9,25,6,90,2,1146,100,1199
215,3,14,68,1,75,7,40,1,1243,93.75,3657
215,3,15,69,1,75,3,90,2,1107,98.75,856
215,3,16,70,7,10,6,90,2,1173,100,956
215,3,17,71,9,60,1,40,1,1985,97.5,1314
215,3,18,72,9,25,1,40,1,1466,100,1917
215,3,19,73,6,90,4,75,1,2801,100,1033
215,3,20,74,9,25,3,60,1,1124,96.25,1038
215,3,21,75,1,40,6,25,2,3358,97.5,735
215,3,22,76,7,40,9,25,1,4055,100,816
215,3,23,77,6,25,3,60,1,3245,91.25,755
215,3,24,78,1,40,4,75,2,4297,100,892
215,3,25,79,1,40,6,90,2,5921,100,972
215,3,26,80,1,75,9,60,2,1409,100,820
215,3,27,81,6,25,3,90,2,696,100,949
215,4,1,82,9,25,4,75,1,2525,100,899
215,4,2,83,4,10,6,90,2,1971,96.25,1239
215,4,3,84,7,40,4,75,2,4566,100,1809
215,4,4,85,9,25,7,40,1,2796,97.5,944
215,4,5,86,6,25,1,75,1,1857,100,789
215,4,6,87,4,75,1,40,1,1570,100,719
215,4,7,88,7,10,3,60,1,2989,100,1063
215,4,8,89,3,60,1,40,1,2005,100,842
215,4,9,90,4,75,9,25,1,549,100,2028
215,4,10,91,4,10,9,60,2,2637,100,1030
215,4,11,92,7,40,3,90,2,2262,95,1907
215,4,12,93,7,40,4,10,1,2524,100,1011
215,4,13,94,6,25,7,10,1,2235,100,700
215,4,14,95,7,40,6,90,2,2845,100,1115
215,4,15,96,3,90,1,75,1,1923,100,993
215,4,16,97,6,90,1,75,1,3660,98.75,825
215,4,17,98,4,10,3,60,2,3044,96.25,1142
215,4,18,99,3,90,7,10,1,2328,100,1074
215,4,19,100,9,60,3,90,1,7052,100,1027
215,4,20,101,9,60,6,90,1,3722,100,1017
215,4,21,102,9,25,7,10,1,1558,100,1075
215,4,22,103,4,75,6,90,1,947,100,1210
215,4,23,104,6,25,9,60,1,3364,100,889
215,4,24,105,7,10,9,25,2,3861,100,976
215,4,25,106,6,90,1,40,1,2123,97.5,872
215,4,26,107,6,25,1,40,1,1748,100,1049
215,4,27,108,4,75,3,90,1,1588,96.25,2347
216,1,1,1,9,60,3,90,2,1723,76.25,1281
216,1,2,2,1,75,6,25,2,2186,50,0
216,1,3,3,6,90,7,10,2,2713,78.75,1408
216,1,4,4,9,25,7,10,1,1866,85,2424
216,1,5,5,1,40,4,75,2,1770,80,1518
216,1,6,6,3,60,7,40,2,2501,85,1624
216,1,7,7,1,40,7,10,1,1117,81.25,1226
216,1,8,8,3,60,4,10,1,1245,80,1608
216,1,9,9,9,25,3,60,2,2850,81.25,1223
216,1,10,10,6,25,3,60,2,1533,85,1298
216,1,11,11,7,10,1,75,1,2290,75,2043
216,1,12,12,4,10,1,75,2,957,36.25,2647
216,1,13,13,3,90,1,40,1,2551,31.25,1233
216,1,14,14,4,75,6,25,2,1297,6.25,1856
216,1,15,15,4,75,3,60,1,2249,71.25,1925
216,1,16,16,9,25,1,75,2,1988,50,0
216,1,17,17,1,40,3,90,1,2450,83.75,1710
216,1,18,18,6,25,1,40,1,3213,50,134
216,1,19,19,6,90,7,40,2,1710,85,1288
216,1,20,20,4,10,7,40,2,1820,100,1561
216,1,21,21,4,10,9,60,2,2297,100,1410
216,1,22,22,9,60,4,75,2,1530,72.5,1098
216,1,23,23,9,60,6,25,1,1641,100,2718
216,1,24,24,4,75,6,90,2,1485,100,1962
216,1,25,25,6,90,1,40,1,1263,100,1420
216,1,26,26,9,60,7,40,1,1301,50,0
216,1,27,27,1,40,3,60,2,994,100,1328
216,2,1,28,3,60,7,10,1,1769,90,1150
216,2,2,29,3,60,1,40,1,1134,90,1146
216,2,3,30,3,90,7,40,1,2107,50,0
216,2,4,31,7,40,1,75,2,1554,18.75,2264
216,2,5,32,1,75,3,60,2,1649,87.5,1101
216,2,6,33,6,25,3,90,2,1483,86.25,1136
216,2,7,34,9,25,7,40,2,1762,95,2146
216,2,8,35,6,90,9,60,1,1027,100,2103
216,2,9,36,6,25,4,75,2,1163,90,1055
216,2,10,37,3,90,4,10,1,1790,85,909
216,2,11,38,9,60,4,10,1,3608,100,1244
216,2,12,39,9,25,4,75,2,1728,100,1061
216,2,13,40,9,25,4,10,1,1312,87.5,982
216,2,14,41,3,60,6,25,1,1697,87.5,921
216,2,15,42,4,10,6,25,2,1274,88.75,899
216,2,16,43,6,25,4,10,1,1212,100,1089
216,2,17,44,7,10,9,25,2,1090,98.75,1296
216,2,18,45,7,40,9,60,2,1577,90,976
216,2,19,46,4,10,1,40,2,643,27.5,1714
216,2,20,47,7,10,1,40,1,2198,87.5,887
216,2,21,48,9,60,1,75,1,1787,100,1135
216,2,22,49,4,75,7,40,1,1308,100,1117
216,2,23,50,7,10,6,25,2,1476,97.5,941
216,2,24,51,4,10,6,90,2,1232,100,1218
216,2,25,52,7,10,6,90,2,1209,100,1103
216,2,26,53,7,10,3,60,2,1337,91.25,926
216,2,27,54,9,25,6,90,2,1420,100,1245
216,3,1,55,1,75,9,25,1,2289,81.25,926
216,3,2,56,1,75,9,60,2,1770,100,1149
216,3,3,57,1,75,7,10,1,2062,85,858
216,3,4,58,9,60,7,10,1,1785,88.75,927
216,3,5,59,6,25,1,75,1,1923,88.75,897
216,3,6,60,3,90,9,25,1,2394,85,894
216,3,7,61,3,60,4,75,2,1579,96.25,1073
216,3,8,62,1,40,4,10,2,2377,88.75,876
216,3,9,63,7,10,3,90,2,991,100,1037
216,3,10,64,3,90,7,10,1,2248,50,807
216,3,11,65,4,75,7,10,1,1434,71.25,716
216,3,12,66,6,90,1,75,1,1766,100,1121
216,3,13,67,3,60,9,25,1,1312,90,1140
216,3,14,68,7,10,4,75,2,1361,98.75,1050
216,3,15,69,4,75,9,60,1,1455,42.5,2351
216,3,16,70,7,40,4,10,1,1140,100,1137
216,3,17,71,9,25,1,40,1,1817,85,819
216,3,18,72,7,40,9,25,1,2602,73.75,713
216,3,19,73,4,10,3,60,2,1563,71.25,783
216,3,20,74,3,90,1,75,1,1988,96.25,998
216,3,21,75,6,90,4,10,1,1539,100,1281
216,3,22,76,6,90,9,25,1,1665,98.75,970
216,3,23,77,7,40,3,60,1,1927,96.25,1158
216,3,24,78,7,40,6,90,2,1522,50,0
216,3,25,79,6,90,3,60,1,1507,100,1180
216,3,26,80,4,10,3,90,2,1630,92.5,1191
216,3,27,81,3,60,6,90,2,1407,86.25,1240
216,4,1,82,6,25,7,10,1,1440,70,1243
216,4,2,83,3,90,9,60,2,2040,86.25,1006
216,4,3,84,6,90,4,75,1,1396,100,1188
216,4,4,85,4,10,9,25,2,1270,87.5,1024
216,4,5,86,1,75,3,90,2,1521,100,1199
216,4,6,87,1,40,9,60,2,1021,88.75,921
216,4,7,88,7,10,9,60,2,809,100,1059
216,4,8,89,1,40,9,25,2,1514,90,929
216,4,9,90,3,90,4,75,1,1557,82.5,1093
216,4,10,91,4,75,9,25,1,2453,86.25,853
216,4,11,92,1,75,6,90,2,1247,92.5,962
216,4,12,93,1,40,6,25,2,1726,90,960
216,4,13,94,7,40,3,90,1,1699,85,963
216,4,14,95,1,40,6,90,2,1001,100,1193
216,4,15,96,3,60,1,75,1,1801,62.5,733
216,4,16,97,7,40,6,25,1,1212,86.25,1039
216,4,17,98,6,25,9,60,2,1319,96.25,1062
216,4,18,99,9,25,3,90,2,2188,85,1049
216,4,19,100,7,40,4,75,2,2080,91.25,1022
216,4,20,101,4,75,3,90,2,1412,87.5,956
216,4,21,102,1,75,7,40,2,1822,78.75,999
216,4,22,103,6,25,7,40,2,2869,100,1081
216,4,23,104,3,90,6,25,1,1755,85,1124
216,4,24,105,9,60,6,90,2,1125,86.25,992
216,4,25,106,9,60,1,40,1,1112,100,1589
216,4,26,107,4,75,1,40,1,1334,90,927
216,4,27,108,1,75,4,10,1,1085,67.5,874
217,1,1,1,7,40,1,75,1,2342,22.5,3551
217,1,2,2,6,25,3,90,2,2274,60,2369
217,1,3,3,7,40,9,60,2,1988,100,1886
217,1,4,4,9,60,3,90,1,6796,26.25,1106
217,1,5,5,9,60,4,10,1,2314,100,1325
217,1,6,6,1,40,9,25,2,2670,72.5,1337
217,1,7,7,9,60,6,25,1,2097,100,1995
217,1,8,8,6,90,4,10,1,3305,100,1420
217,1,9,9,3,90,4,75,1,2358,100,1266
217,1,10,10,1,75,7,10,2,6971,28.75,1584
217,1,11,11,1,75,9,60,2,3666,80,1828
217,1,12,12,1,75,3,90,2,2816,100,1877
217,1,13,13,3,90,9,60,2,5126,76.25,1156
217,1,14,14,6,90,1,40,1,2383,100,1859
217,1,15,15,1,75,9,25,2,2752,73.75,1741
217,1,16,16,9,60,1,75,1,2671,77.5,1419
217,1,17,17,1,40,6,25,2,7544,70,1280
217,1,18,18,6,25,1,75,1,2332,78.75,2912
217,1,19,19,4,75,6,25,1,1683,68.75,1789
217,1,20,20,1,40,7,10,2,4958,73.75,1222
217,1,21,21,1,40,3,90,2,1589,100,1224
217,1,22,22,7,10,3,90,2,3766,63.75,2985
217,1,23,23,6,25,1,40,1,1737,71.25,941
217,1,24,24,4,10,9,60,2,1879,100,1158
217,1,25,25,3,60,1,40,1,1261,100,1110
217,1,26,26,6,25,4,75,2,1437,80,1567
217,1,27,27,4,75,3,90,2,2052,100,1720
217,2,1,28,4,75,9,60,2,3524,40,998
217,2,2,29,4,10,1,40,1,3733,60,1427
217,2,3,30,7,10,4,75,2,1400,56.25,1739
217,2,4,31,6,25,7,10,1,2577,100,862
217,2,5,32,6,25,9,60,2,1676,100,1244
217,2,6,33,3,60,7,10,1,4640,30,1875
217,2,7,34,3,90,6,25,2,2335,16.25,1991
217,2,8,35,7,40,3,60,1,2278,65,961
217,2,9,36,9,25,4,10,1,2027,100,1128
217,2,10,37,3,90,1,40,1,2250,100,1039
217,2,11,38,3,60,7,40,2,5917,68.75,1000
217,2,12,39,6,90,7,10,1,1341,100,1113
217,2,13,40,7,10,9,25,2,1178,100,1259
217,2,14,41,6,90,1,75,1,1921,100,1183
217,2,15,42,9,25,7,10,1,1476,100,1027
217,2,16,43,1,40,4,10,1,1464,61.25,2143
217,2,17,44,3,90,7,40,1,1461,76.25,1777
217,2,18,45,3,60,6,90,2,1810,100,1246
217,2,19,46,4,75,7,40,1,7238,93.75,1567
217,2,20,47,4,10,3,60,2,1525,100,1161
217,2,21,48,1,40,3,60,2,1748,97.5,943
217,2,22,49,9,25,1,75,1,3109,23.75,2252
217,2,23,50,3,90,7,10,1,2646,31.25,1411
217,2,24,51,4,75,9,25,2,2873,10,1536
217,2,25,52,7,10,6,25,2,1931,100,1123
217,2,26,53,6,90,4,75,1,2231,100,1075
217,2,27,54,4,10,1,75,2,2034,61.25,838
217,3,1,55,9,25,3,60,1,2060,26.25,1170
217,3,2,56,7,10,1,40,2,1424,61.25,1697
217,3,3,57,9,60,7,40,1,1355,100,1067
217,3,4,58,7,40,4,10,1,1729,100,839
217,3,5,59,9,25,3,90,1,3003,70,1373
217,3,6,60,4,10,7,40,2,1447,100,1108
217,3,7,61,6,25,7,40,2,2073,98.75,2067
217,3,8,62,4,75,6,90,2,1023,100,1146
217,3,9,63,9,60,7,10,1,1402,100,1252
217,3,10,64,3,60,1,75,1,3968,62.5,2899
217,3,11,65,4,75,1,40,1,1440,100,1012
217,3,12,66,9,25,6,90,2,2575,70,1817
217,3,13,67,9,60,1,40,1,1627,100,1194
217,3,14,68,4,10,9,25,2,1457,100,1012
217,3,15,69,4,10,6,90,2,855,100,1882
217,3,16,70,3,90,9,25,2,2177,32.5,877
217,3,17,71,9,25,1,40,1,1581,86.25,2777
217,3,18,72,6,90,7,40,1,1946,100,1024
217,3,19,73,4,75,7,10,1,1451,70,1036
217,3,20,74,7,40,3,90,2,2951,32.5,1139
217,3,21,75,9,60,6,90,2,1775,60,1028
217,3,22,76,1,75,7,40,2,1870,23.75,984
217,3,23,77,1,75,6,90,2,830,100,1067
217,3,24,78,1,40,9,60,2,1405,100,916
217,3,25,79,7,10,1,75,1,2688,15,1513
217,3,26,80,1,75,6,25,1,1862,0,3402
217,3,27,81,3,60,9,25,2,1985,67.5,1136
217,4,1,82,7,40,9,25,2,1452,23.75,1656
217,4,2,83,7,10,6,90,2,1212,100,1090
217,4,3,84,1,75,4,10,1,3624,17.5,1487
217,4,4,85,9,60,4,75,1,1751,82.5,880
217,4,5,86,6,25,3,60,1,2231,63.75,784
217,4,6,87,3,60,4,10,1,1021,100,1008
217,4,7,88,6,25,4,10,1,1618,27.5,1703
217,4,8,89,6,90,9,60,1,2471,75,920
217,4,9,90,3,60,4,75,2,1286,100,1028
217,4,10,91,3,60,6,25,2,2514,65,818
217,4,11,92,4,10,3,90,2,777,100,1073
217,4,12,93,7,10,9,60,2,859,100,1043
217,4,13,94,9,25,7,40,2,1495,100,2011
217,4,14,95,3,90,4,10,1,1384,100,902
217,4,15,96,1,75,3,60,2,2119,31.25,1855
217,4,16,97,7,10,3,60,2,1027,35,858
217,4,17,98,7,40,6,90,2,1074,100,894
217,4,18,99,1,40,4,75,2,1637,100,1868
217,4,19,100,6,90,9,25,1,2375,83.75,965
217,4,20,101,6,90,3,60,1,1631,100,906
217,4,21,102,4,75,3,60,1,1154,100,747
217,4,22,103,7,40,6,25,1,1344,100,1076
217,4,23,104,1,40,6,90,2,599,97.5,752
217,4,24,105,4,10,6,25,2,1637,100,1166
217,4,25,106,7,40,4,75,2,1109,70,1193
217,4,26,107,9,25,4,75,1,1880,75,940
217,4,27,108,3,90,1,75,1,1345,100,841
218,1,1,1,4,75,7,40,1,3747,67.5,500
218,1,2,2,6,90,1,40,1,1612,92.5,746
218,1,3,3,1,40,3,60,2,1052,66.25,1200
218,1,4,4,7,10,4,75,2,1782,80,861
218,1,5,5,9,60,6,25,1,2002,60,563
218,1,6,6,1,75,7,10,2,2524,6.25,946
218,1,7,7,9,25,7,10,2,2177,0,1462
218,1,8,8,1,75,6,90,2,2361,61.25,1227
218,1,9,9,7,10,1,75,1,7749,3.75,1103
218,1,10,10,7,10,3,90,2,2996,73.75,863
218,1,11,11,4,10,9,60,2,3270,60,1105
218,1,12,12,3,90,4,75,2,3923,61.25,491
218,1,13,13,9,60,7,40,1,2552,58.75,669
218,1,14,14,3,90,1,75,1,2058,91.25,968
218,1,15,15,6,90,4,10,1,1310,90,1012
218,1,16,16,3,60,6,25,2,3569,15,674
218,1,17,17,6,90,4,75,1,1985,92.5,869
218,1,18,18,1,75,9,60,2,1742,52.5,846
218,1,19,19,4,75,3,90,1,3097,68.75,781
218,1,20,20,6,25,3,90,1,4109,12.5,977
218,1,21,21,1,40,7,10,2,3186,10,1106
218,1,22,22,1,40,6,25,2,1991,65,1121
218,1,23,23,9,25,1,40,1,1954,12.5,967
218,1,24,24,9,25,6,90,2,2589,80,868
218,1,25,25,7,10,9,25,2,3075,35,653
218,1,26,26,3,60,9,25,2,1971,16.25,1801
218,1,27,27,6,90,9,60,2,2267,56.25,706
218,2,1,28,3,90,7,10,2,3353,3.75,979
218,2,2,29,3,90,7,40,2,2227,31.25,665
218,2,3,30,4,75,9,60,2,5806,60,1366
218,2,4,31,1,75,7,40,2,2737,26.25,855
218,2,5,32,9,60,4,75,1,3776,56.25,1558
218,2,6,33,4,10,1,40,1,2124,33.75,1782
218,2,7,34,9,60,4,10,1,4031,62.5,1434
218,2,8,35,4,10,6,90,2,6412,88.75,690
218,2,9,36,1,40,4,10,2,2195,7.5,898
218,2,10,37,7,10,9,60,2,2212,68.75,645
218,2,11,38,7,40,1,75,1,1919,27.5,1138
218,2,12,39,3,90,4,10,1,4402,21.25,1931
218,2,13,40,9,60,1,75,1,4889,61.25,1945
218,2,14,41,9,25,7,40,2,2504,35,733
218,2,15,42,7,40,4,75,2,2583,65,825
218,2,16,43,3,60,7,10,2,2750,10,1127
218,2,17,44,1,75,9,25,2,2014,36.25,1078
218,2,18,45,3,60,6,90,2,4538,73.75,1204
218,2,19,46,3,90,9,25,2,2883,11.25,1045
218,2,20,47,7,40,3,90,1,3631,41.25,847
218,2,21,48,9,25,4,10,1,3336,38.75,994
218,2,22,49,1,75,6,25,2,4978,28.75,2423
218,2,23,50,4,10,1,75,2,4876,60,1389
218,2,24,51,9,60,1,40,1,1754,72.5,486
218,2,25,52,9,25,1,75,1,1838,25,633
218,2,26,53,6,90,1,75,1,1406,78.75,802
218,2,27,54,1,40,9,60,2,1076,73.75,760
218,3,1,55,6,25,3,60,1,2569,21.25,812
218,3,2,56,7,10,1,40,1,2944,0,1106
218,3,3,57,7,40,6,25,1,1472,56.25,1616
218,3,4,58,7,40,3,60,1,1334,41.25,537
218,3,5,59,7,10,3,60,1,1887,0,1039
218,3,6,60,3,60,1,75,1,2020,58.75,616
218,3,7,61,9,60,7,10,1,1726,87.5,866
218,3,8,62,6,90,7,40,1,2611,87.5,862
218,3,9,63,3,90,9,60,2,1817,53.75,542
218,3,10,64,6,25,7,40,2,1182,78.75,897
218,3,11,65,3,90,6,25,1,2635,22.5,661
218,3,12,66,6,90,9,25,1,6349,66.25,1872
218,3,13,67,3,90,1,40,1,1284,93.75,768
218,3,14,68,4,10,7,40,2,1253,40,1036
218,3,15,69,1,75,3,90,2,1318,91.25,917
218,3,16,70,6,25,4,75,2,1935,35,586
218,3,17,71,6,25,7,10,2,2507,20,886
218,3,18,72,4,75,6,25,2,3809,16.25,835
218,3,19,73,7,10,6,25,1,2176,0,997
218,3,20,74,6,25,4,10,1,2078,7.5,1063
218,3,21,75,6,90,7,10,1,1372,70,746
218,3,22,76,4,75,6,90,2,1800,72.5,2625
218,3,23,77,9,25,3,60,1,3235,16.25,892
218,3,24,78,6,25,1,75,1,1368,12.5,1220
218,3,25,79,3,60,4,10,2,1821,2.5,1030
218,3,26,80,3,60,4,75,2,1424,70,949
218,3,27,81,1,75,3,60,2,1826,57.5,413
218,4,1,82,9,25,4,75,1,1498,22.5,1033
218,4,2,83,4,75,1,40,1,1531,81.25,740
218,4,3,84,6,90,3,60,1,913,92.5,806
218,4,4,85,9,60,3,90,1,1626,75,807
218,4,5,86,3,60,7,40,1,1164,61.25,921
218,4,6,87,9,25,3,90,1,2247,20,1225
218,4,7,88,7,10,6,90,2,3042,83.75,974
218,4,8,89,1,40,9,25,2,1669,23.75,869
218,4,9,90,7,40,6,90,2,1630,20,1579
218,4,10,91,4,10,9,25,2,1228,16.25,1543
218,4,11,92,7,40,9,60,2,1870,65,535
218,4,12,93,6,25,1,40,1,1769,28.75,1886
218,4,13,94,9,60,6,90,1,2032,58.75,516
218,4,14,95,1,40,4,75,2,2002,71.25,740
218,4,15,96,4,75,9,25,2,2226,18.75,1115
218,4,16,97,4,75,7,10,2,1850,6.25,957
218,4,17,98,3,60,1,40,1,2199,63.75,507
218,4,18,99,4,10,6,25,2,1640,28.75,1013
218,4,19,100,4,10,3,60,2,1433,62.5,949
218,4,20,101,1,40,6,90,2,1457,87.5,932
218,4,21,102,6,25,9,60,2,3745,72.5,699
218,4,22,103,7,40,4,10,1,1434,41.25,705
218,4,23,104,1,75,4,10,1,1521,56.25,897
218,4,24,105,4,75,3,60,1,1845,85,878
218,4,25,106,4,10,3,90,2,5529,65,558
218,4,26,107,1,40,3,90,2,1064,92.5,722
218,4,27,108,7,40,9,25,2,1886,58.75,498
219,1,1,1,4,10,6,25,2,1942,100,1388
219,1,2,2,4,10,7,40,2,1438,100,1065
219,1,3,3,7,10,9,25,2,2538,100,1268
219,1,4,4,1,75,4,10,1,2366,100,1288
219,1,5,5,7,10,3,90,2,2258,100,1215
219,1,6,6,7,10,3,60,2,1876,100,1228
219,1,7,7,1,40,7,10,2,4951,50,394
219,1,8,8,7,40,9,25,1,4369,87.5,1109
219,1,9,9,1,75,6,90,2,1462,100,1141
219,1,10,10,3,90,9,25,1,2031,100,1191
219,1,11,11,1,40,4,75,2,1300,100,1203
219,1,12,12,9,60,4,75,1,3770,75,875
219,1,13,13,6,90,9,60,1,2120,100,1335
219,1,14,14,3,90,9,60,1,5540,76.25,808
219,1,15,15,9,25,1,40,1,1739,91.25,1315
219,1,16,16,4,75,3,90,2,2264,100,1694
219,1,17,17,7,40,6,90,2,1476,100,1612
219,1,18,18,9,60,3,90,2,2519,86.25,1035
219,1,19,19,7,10,6,90,2,1431,100,1155
219,1,20,20,4,75,7,10,1,3127,100,1683
219,1,21,21,1,75,7,10,1,1521,100,1316
219,1,22,22,9,25,3,90,2,1702,100,1301
219,1,23,23,9,25,1,75,2,2768,82.5,1126
219,1,24,24,3,60,1,40,1,2150,100,1205
219,1,25,25,6,90,3,60,1,2013,100,1258
219,1,26,26,6,25,1,75,2,1905,100,1284
219,1,27,27,1,75,9,60,2,2106,100,1101
219,2,1,28,7,40,4,75,2,2500,100,2414
219,2,2,29,9,60,1,40,1,1573,100,1331
219,2,3,30,6,90,4,75,1,1576,100,1980
219,2,4,31,9,25,4,10,1,1319,100,948
219,2,5,32,9,25,4,75,2,2246,100,1710
219,2,6,33,4,75,1,40,1,1973,100,1301
219,2,7,34,4,75,6,25,1,1520,100,1660
219,2,8,35,6,90,7,10,1,1958,100,1263
219,2,9,36,1,40,3,60,2,2228,100,1713
219,2,10,37,9,25,7,10,1,1618,100,1102
219,2,11,38,1,75,3,60,1,3093,81.25,2101
219,2,12,39,7,40,6,25,1,2335,100,1172
219,2,13,40,3,60,4,10,1,1423,100,1213
219,2,14,41,7,10,4,75,2,1926,100,1178
219,2,15,42,6,25,7,40,2,1672,100,1200
219,2,16,43,6,90,9,25,1,1253,100,1166
219,2,17,44,1,40,6,25,2,1293,100,1742
219,2,18,45,6,25,3,90,2,1749,100,1431
219,2,19,46,7,40,9,60,2,1317,100,1399
219,2,20,47,6,25,3,60,2,1616,100,1157
219,2,21,48,3,90,7,40,1,1717,100,1320
219,2,22,49,3,90,1,40,1,1035,100,1402
219,2,23,50,6,25,4,75,2,1762,100,1475
219,2,24,51,1,75,6,25,2,5199,60,3238
219,2,25,52,3,90,7,10,1,1406,100,1499
219,2,26,53,4,10,3,90,2,991,100,1260
219,2,27,54,9,60,6,90,2,1239,100,1381
219,3,1,55,6,25,1,40,1,2037,80,1085
219,3,2,56,1,75,7,40,1,3205,78.75,1488
219,3,3,57,4,75,9,25,1,2028,100,1227
219,3,4,58,6,25,9,60,2,1536,100,1185
219,3,5,59,7,10,1,75,2,2234,100,1221
219,3,6,60,6,90,1,40,1,1318,100,1403
219,3,7,61,4,10,1,75,2,1704,100,1334
219,3,8,62,1,40,3,90,2,1150,100,1287
219,3,9,63,6,90,4,10,1,1493,100,1277
219,3,10,64,4,75,3,60,1,2006,100,1132
219,3,11,65,7,40,4,10,1,1199,100,1354
219,3,12,66,4,75,6,90,2,1777,100,1311
219,3,13,67,4,75,9,60,2,3044,85,1146
219,3,14,68,3,60,6,25,1,2249,100,1008
219,3,15,69,3,60,6,90,2,999,100,1281
219,3,16,70,9,25,7,40,2,1436,100,1426
219,3,17,71,9,60,4,10,1,1355,100,1652
219,3,18,72,3,60,9,25,1,7330,86.25,1244
219,3,19,73,4,10,6,90,2,1022,100,1564
219,3,20,74,6,90,7,40,1,1591,100,1347
219,3,21,75,7,10,9,60,2,1961,100,1311
219,3,22,76,4,10,1,40,2,2019,87.5,1185
219,3,23,77,7,40,3,90,2,1033,100,1318
219,3,24,78,7,40,1,75,2,2766,83.75,1109
219,3,25,79,6,25,7,10,1,3509,100,1166
219,3,26,80,3,60,4,75,2,2349,100,1174
219,3,27,81,7,10,1,40,1,4269,75,925
219,4,1,82,7,10,6,25,2,2012,100,1545
219,4,2,83,4,10,9,60,2,1042,100,1245
219,4,3,84,9,60,7,40,1,1134,100,1335
219,4,4,85,3,60,7,40,2,2243,100,1595
219,4,5,86,3,90,1,75,1,1893,100,1294
219,4,6,87,9,25,3,60,2,3335,100,941
219,4,7,88,9,25,6,90,2,974,100,1479
219,4,8,89,4,10,9,25,2,1012,100,1608
219,4,9,90,1,75,3,90,2,1188,100,1081
219,4,10,91,4,75,7,40,1,1723,100,914
219,4,11,92,9,60,1,75,1,1713,100,1057
219,4,12,93,6,90,1,75,1,977,100,1109
219,4,13,94,1,40,9,25,2,1848,100,1474
219,4,14,95,4,10,3,60,2,1129,100,1039
219,4,15,96,3,90,4,10,1,1099,100,1404
219,4,16,97,6,25,4,10,1,2024,100,1482
219,4,17,98,1,40,4,10,1,2449,50,672
219,4,18,99,7,40,3,60,2,4250,68.75,860
219,4,19,100,3,60,1,75,1,3199,73.75,908
219,4,20,101,1,75,9,25,1,2878,50,310
219,4,21,102,3,90,6,25,1,1381,100,1173
219,4,22,103,3,90,4,75,1,1094,100,973
219,4,23,104,9,60,7,10,1,1262,100,1290
219,4,24,105,9,60,6,25,1,1751,100,1469
219,4,25,106,1,40,6,90,2,1741,100,1429
219,4,26,107,3,60,7,10,1,1872,100,1068
219,4,27,108,1,40,9,60,2,1302,100,1301
221,1,1,1,9,60,4,75,1,3279,100,3912
221,1,2,2,7,40,3,90,2,3538,98.75,2371
221,1,3,3,9,60,7,40,1,1594,81.25,2164
221,1,4,4,4,10,3,90,2,1606,50,462
221,1,5,5,3,60,7,10,1,1351,88.75,2107
221,1,6,6,1,40,3,90,2,1219,100,1604
221,1,7,7,7,40,4,75,2,5887,91.25,1849
221,1,8,8,1,40,9,60,2,1035,95,2220
221,1,9,9,4,10,1,40,1,7526,97.5,2901
221,1,10,10,1,40,3,60,2,2223,100,2251
221,1,11,11,9,60,6,25,1,1505,100,2387
221,1,12,12,4,10,6,90,2,1243,100,2009
221,1,13,13,4,75,9,25,1,3141,50,299
221,1,14,14,7,10,4,75,2,2471,98.75,2020
221,1,15,15,9,60,3,90,1,3386,96.25,2379
221,1,16,16,3,60,6,90,2,1105,100,2101
221,1,17,17,4,10,9,60,2,1287,100,1117
221,1,18,18,7,40,6,25,1,1473,100,1017
221,1,19,19,7,10,3,90,2,2004,100,1237
221,1,20,20,4,10,7,40,2,1041,100,2082
221,1,21,21,3,90,1,75,1,1211,100,894
221,1,22,22,9,25,1,75,2,681,2.5,2808
221,1,23,23,6,25,7,40,2,1000,100,1701
221,1,24,24,9,25,4,10,1,2548,75,974
221,1,25,25,6,90,7,40,1,2061,100,995
221,1,26,26,7,10,9,60,2,1456,100,1013
221,1,27,27,9,25,3,60,1,4119,50,306
221,2,1,28,9,25,4,75,2,4620,80,791
221,2,2,29,6,25,3,90,2,3236,98.75,822
221,2,3,30,4,75,9,60,2,2550,100,1292
221,2,4,31,3,60,7,40,2,6042,87.5,1193
221,2,5,32,3,90,9,60,2,4634,91.25,996
221,2,6,33,4,10,6,25,2,1343,100,908
221,2,7,34,6,25,4,10,1,2071,100,1701
221,2,8,35,3,60,4,75,2,1556,100,1230
221,2,9,36,1,75,7,40,2,4360,100,1356
221,2,10,37,1,75,4,10,1,6582,57.5,1070
221,2,11,38,6,25,7,10,2,7318,50,300
221,2,12,39,1,75,9,60,2,1671,91.25,1167
221,2,13,40,7,10,3,60,2,2631,88.75,577
221,2,14,41,1,40,9,25,2,2842,81.25,1565
221,2,15,42,4,75,3,90,1,5199,100,1569
221,2,16,43,6,25,4,75,2,7394,91.25,1177
221,2,17,44,7,40,1,75,1,3267,91.25,873
221,2,18,45,4,75,1,40,1,1876,100,848
221,2,19,46,6,90,1,40,1,1318,100,719
221,2,20,47,1,75,3,60,2,2343,100,1015
221,2,21,48,9,60,4,10,1,2671,100,1272
221,2,22,49,6,25,9,60,2,2021,100,953
221,2,23,50,7,40,6,90,2,2051,100,1237
221,2,24,51,6,90,1,75,1,4816,100,2688
221,2,25,52,9,25,7,10,1,4539,100,738
221,2,26,53,7,10,1,40,1,2896,100,1163
221,2,27,54,6,90,3,60,1,1820,100,735
221,3,1,55,1,75,6,90,2,1995,100,1213
221,3,2,56,4,75,6,90,2,3894,97.5,1334
221,3,3,57,3,60,4,10,1,1447,100,939
221,3,4,58,6,25,1,40,1,2809,100,799
221,3,5,59,3,60,1,75,1,2573,100,868
221,3,6,60,9,60,1,40,1,1907,100,1433
221,3,7,61,7,40,3,60,1,4682,100,764
221,3,8,62,1,40,4,75,2,1367,98.75,1789
221,3,9,63,7,40,4,10,1,2263,100,974
221,3,10,64,1,75,7,10,1,5166,98.75,850
221,3,11,65,1,40,6,90,2,1162,100,1223
221,3,12,66,4,75,6,25,2,261,13.75,2311
221,3,13,67,9,60,1,75,1,2902,96.25,755
221,3,14,68,6,25,3,60,2,5082,83.75,700
221,3,15,69,4,75,7,10,1,1918,90,550
221,3,16,70,1,75,6,25,1,2495,80,2885
221,3,17,71,3,90,6,25,1,2166,85,588
221,3,18,72,4,75,7,40,1,2153,72.5,602
221,3,19,73,6,90,4,10,1,1850,100,904
221,3,20,74,9,60,6,90,1,1436,50,1436
221,3,21,75,6,90,7,10,1,2304,100,752
221,3,22,76,3,60,6,25,1,1885,75,569
221,3,23,77,4,10,1,75,2,740,31.25,2333
221,3,24,78,1,75,9,25,2,3206,100,3109
221,3,25,79,1,40,4,10,2,5309,92.5,1774
221,3,26,80,7,40,9,25,1,4518,93.75,810
221,3,27,81,7,10,1,75,2,3641,88.75,600
221,4,1,82,7,10,6,25,2,5309,100,1176
221,4,2,83,4,10,3,60,2,3018,97.5,1153
221,4,3,84,1,40,6,25,2,1600,93.75,1238
221,4,4,85,3,60,1,40,1,3926,88.75,650
221,4,5,86,9,60,7,10,1,1832,93.75,754
221,4,6,87,6,90,9,25,1,1818,73.75,803
221,4,7,88,3,90,7,10,1,1474,78.75,631
221,4,8,89,1,40,7,10,2,1711,31.25,1445
221,4,9,90,1,75,3,90,2,1319,100,1368
221,4,10,91,4,75,3,60,1,1796,100,958
221,4,11,92,3,90,4,10,1,1471,100,834
221,4,12,93,9,25,6,90,2,1376,98.75,1161
221,4,13,94,4,10,9,25,2,1266,100,1870
221,4,14,95,6,90,9,60,1,1629,30,1576
221,4,15,96,3,90,4,75,2,1259,51.25,1561
221,4,16,97,9,25,1,40,1,2451,72.5,1224
221,4,17,98,3,90,7,40,1,2867,50,188
221,4,18,99,3,90,1,40,1,1384,100,818
221,4,19,100,6,90,4,75,1,2114,100,790
221,4,20,101,7,10,6,90,2,1630,100,1609
221,4,21,102,3,90,9,25,1,9883,70,846
221,4,22,103,9,25,7,40,1,3901,75,609
221,4,23,104,9,25,3,90,1,3202,68.75,2076
221,4,24,105,3,60,9,25,2,4624,71.25,671
221,4,25,106,7,10,9,25,2,4301,95,879
221,4,26,107,7,40,9,60,2,2661,95,810
221,4,27,108,6,25,1,75,2,6113,83.75,1306
223,1,1,1,7,10,1,40,1,2807,63.75,1844
223,1,2,2,9,60,6,90,1,4301,67.5,1610
223,1,3,3,6,90,4,75,1,2728,90,3202
223,1,4,4,4,10,6,90,2,2874,97.5,3841
223,1,5,5,7,10,9,60,2,4530,95,2821
223,1,6,6,9,25,1,40,1,4374,68.75,1355
223,1,7,7,7,40,3,60,2,2095,63.75,1746
223,1,8,8,9,25,6,90,2,5386,70,2900
223,1,9,9,9,60,4,75,1,4286,62.5,4051
223,1,10,10,4,10,1,40,2,3136,86.25,3111
223,1,11,11,1,75,9,25,2,5925,35,2578
223,1,12,12,3,90,9,60,1,2726,70,3304
223,1,13,13,9,60,6,25,1,3324,92.5,1820
223,1,14,14,6,90,9,60,1,2751,90,2327
223,1,15,15,3,60,7,40,2,5628,38.75,1757
223,1,16,16,7,10,3,90,2,3462,63.75,1963
223,1,17,17,6,25,4,10,1,3206,65,2525
223,1,18,18,6,25,3,90,2,1904,76.25,3759
223,1,19,19,3,60,7,10,1,4172,56.25,1205
223,1,20,20,6,90,1,40,1,2302,100,2493
223,1,21,21,1,75,7,40,2,3431,66.25,1780
223,1,22,22,3,90,9,25,2,5464,35,2221
223,1,23,23,9,60,7,40,1,3077,81.25,1632
223,1,24,24,9,25,7,40,1,4834,63.75,1263
223,1,25,25,3,90,4,10,1,3157,91.25,2338
223,1,26,26,9,60,7,10,1,5088,97.5,2263
223,1,27,27,1,75,7,10,2,5125,27.5,2576
223,2,1,28,3,90,7,40,1,5107,38.75,1826
223,2,2,29,1,40,3,90,2,1442,100,2014
223,2,3,30,6,90,4,10,1,2245,98.75,2014
223,2,4,31,3,90,7,10,1,4854,90,2647
223,2,5,32,7,10,9,25,2,2053,60,2691
223,2,6,33,6,25,7,40,2,4320,78.75,2378
223,2,7,34,1,75,6,90,2,3105,100,2742
223,2,8,35,3,60,4,75,2,5909,100,2177
223,2,9,36,1,40,4,10,1,6539,11.25,3203
223,2,10,37,6,25,3,60,1,4992,67.5,2928
223,2,11,38,1,40,4,75,2,1372,97.5,2335
223,2,12,39,1,40,7,10,2,5125,46.25,1793
223,2,13,40,4,75,1,40,1,3356,95,1455
223,2,14,41,1,75,9,60,2,3756,56.25,3077
223,2,15,42,1,40,6,90,2,1952,50,0
223,2,16,43,6,90,3,60,1,3504,91.25,1938
223,2,17,44,7,40,1,75,1,5553,63.75,1264
223,2,18,45,3,60,6,25,1,8276,70,2686
223,2,19,46,9,25,7,10,1,5095,86.25,2224
223,2,20,47,4,75,6,90,2,6067,100,2738
223,2,21,48,9,25,3,90,1,4586,41.25,1412
223,2,22,49,6,25,1,40,1,5088,57.5,2095
223,2,23,50,6,25,1,75,1,3181,62.5,2099
223,2,24,51,4,10,6,25,2,5161,100,2206
223,2,25,52,4,10,1,75,2,6773,37.5,2067
223,2,26,53,1,40,9,60,2,1041,100,1712
223,2,27,54,3,60,6,90,2,2971,82.5,1490
223,3,1,55,4,10,3,90,2,6355,100,2049
223,3,2,56,6,90,1,75,1,2467,100,1421
223,3,3,57,7,40,6,25,1,4701,98.75,1271
223,3,4,58,4,75,6,25,1,5205,48.75,2965
223,3,5,59,9,25,4,75,2,7013,58.75,1308
223,3,6,60,1,75,3,90,2,4041,100,1538
223,3,7,61,9,60,3,90,1,6128,52.5,3664
223,3,8,62,3,90,1,75,1,5435,100,1548
223,3,9,63,1,75,6,25,2,4672,57.5,2228
223,3,10,64,9,25,1,75,1,4223,41.25,1656
223,3,11,65,1,40,6,25,2,6083,93.75,1954
223,3,12,66,6,25,4,75,2,1738,57.5,1417
223,3,13,67,3,60,1,40,1,2482,86.25,1157
223,3,14,68,4,75,3,60,1,5550,96.25,1617
223,3,15,69,9,25,4,10,1,4690,50,0
223,3,16,70,7,10,1,75,1,5690,63.75,1613
223,3,17,71,6,90,7,40,1,3039,100,1988
223,3,18,72,9,60,4,10,1,1614,100,1724
223,3,19,73,7,40,9,60,2,3600,68.75,1762
223,3,20,74,7,40,3,90,2,3984,58.75,1109
223,3,21,75,7,40,4,75,1,2646,36.25,2264
223,3,22,76,4,10,9,60,2,1899,82.5,2175
223,3,23,77,4,75,7,40,1,6283,58.75,1385
223,3,24,78,7,10,6,90,2,4345,98.75,1818
223,3,25,79,7,40,6,90,2,2361,100,1478
223,3,26,80,1,75,3,60,1,2318,25,2040
223,3,27,81,6,90,9,25,1,2713,90,1245
223,4,1,82,4,75,9,25,1,4132,55,1085
223,4,2,83,6,90,7,10,1,1662,67.5,1696
223,4,3,84,3,90,6,25,1,2310,81.25,2516
223,4,4,85,3,90,1,40,1,2238,56.25,900
223,4,5,86,3,60,9,25,2,3239,66.25,1904
223,4,6,87,4,75,7,10,1,1987,81.25,1703
223,4,7,88,3,90,4,75,1,1820,83.75,2706
223,4,8,89,6,25,7,10,1,2482,58.75,1142
223,4,9,90,3,60,1,75,1,2525,41.25,1683
223,4,10,91,1,40,9,25,2,1217,61.25,2006
223,4,11,92,4,75,9,60,2,2574,86.25,1499
223,4,12,93,6,25,9,60,2,1511,85,3769
223,4,13,94,4,10,7,40,2,5027,36.25,1536
223,4,14,95,4,75,3,90,1,4001,58.75,959
223,4,15,96,7,10,4,75,2,1956,91.25,1565
223,4,16,97,3,60,4,10,1,1412,58.75,1057
223,4,17,98,4,10,9,25,2,1570,32.5,1802
223,4,18,99,7,10,6,25,2,2298,46.25,2295
223,4,19,100,7,10,3,60,2,4859,65,1069
223,4,20,101,9,60,1,40,1,1045,78.75,1325
223,4,21,102,1,40,3,60,2,1247,43.75,1456
223,4,22,103,7,40,9,25,2,938,15,2166
223,4,23,104,9,60,1,75,1,1189,72.5,1497
223,4,24,105,4,10,3,60,2,2820,56.25,1122
223,4,25,106,7,40,4,10,1,2328,66.25,1128
223,4,26,107,1,75,4,10,2,1660,42.5,2231
223,4,27,108,9,25,3,60,1,3989,13.75,1874
224,1,1,1,6,90,9,25,1,4082,88.75,2400
224,1,2,2,6,25,4,10,1,2865,100,4691
224,1,3,3,4,10,1,40,2,3683,75,955
224,1,4,4,6,25,7,10,1,3502,83.75,1040
224,1,5,5,7,10,3,60,1,4946,77.5,1176
224,1,6,6,7,10,9,60,2,1706,95,2091
224,1,7,7,1,40,6,25,1,1543,81.25,909
224,1,8,8,6,25,3,90,2,1635,100,1281
224,1,9,9,9,60,7,40,1,950,100,880
224,1,10,10,7,40,9,25,1,2995,70,2275
224,1,11,11,3,60,1,40,1,2211,100,856
224,1,12,12,9,25,1,75,2,9359,58.75,2265
224,1,13,13,7,40,3,90,2,1894,82.5,1351
224,1,14,14,4,10,6,90,2,5971,100,3166
224,1,15,15,3,90,4,10,1,5657,96.25,1172
224,1,16,16,4,75,1,40,1,2724,78.75,1030
224,1,17,17,7,40,6,25,1,5603,35,2365
224,1,18,18,6,90,9,60,1,2347,20,838
224,1,19,19,6,25,3,60,1,3371,30,1085
224,1,20,20,1,75,7,40,1,2282,0,1389
224,1,21,21,1,75,3,90,2,1550,50,6009
224,1,22,22,7,10,3,90,2,1728,51.25,2293
224,1,23,23,9,60,7,10,1,1339,100,1129
224,1,24,24,7,10,1,75,1,3849,37.5,624
224,1,25,25,4,10,9,60,2,2280,100,964
224,1,26,26,3,90,7,10,1,1388,50,583
224,1,27,27,1,40,3,90,2,1711,21.25,874
224,2,1,28,1,75,4,10,2,23072,16.25,1353
224,2,2,29,9,60,3,90,1,1192,100,1159
224,2,3,30,9,25,4,75,1,5538,50,917
224,2,4,31,9,25,3,90,1,2661,31.25,1027
224,2,5,32,7,10,1,40,2,1879,10,571
224,2,6,33,3,60,7,10,1,1469,65,830
224,2,7,34,9,60,4,10,1,976,100,771
224,2,8,35,6,25,1,75,1,13059,50,107
224,2,9,36,9,25,7,10,1,1320,100,923
224,2,10,37,4,75,9,60,2,1222,77.5,1387
224,2,11,38,6,90,1,40,1,1648,100,712
224,2,12,39,3,90,1,75,1,2528,100,993
224,2,13,40,4,75,3,90,1,6543,75,556
224,2,14,41,6,25,7,40,2,2000,100,1646
224,2,15,42,1,75,9,25,2,1738,36.25,2010
224,2,16,43,3,90,9,60,2,2193,50,1288
224,2,17,44,7,40,3,60,1,4059,37.5,2079
224,2,18,45,1,40,6,90,2,6098,100,1218
224,2,19,46,6,90,7,40,1,9674,100,946
224,2,20,47,4,75,3,60,1,2857,100,1477
224,2,21,48,4,75,6,25,1,1613,18.75,887
224,2,22,49,1,75,7,10,1,2137,40,464
224,2,23,50,7,40,9,60,2,1585,8.75,831
224,2,24,51,6,25,4,75,2,3731,63.75,1145
224,2,25,52,9,60,1,75,1,5941,73.75,1303
224,2,26,53,6,25,1,40,1,8193,91.25,1479
224,2,27,54,4,10,6,25,2,2703,100,2736
224,3,1,55,3,60,1,75,1,2186,15,1113
224,3,2,56,3,90,6,25,1,1361,50,503
224,3,3,57,3,90,9,25,2,1608,58.75,1094
224,3,4,58,1,40,4,75,2,1005,100,1422
224,3,5,59,7,10,9,25,2,6451,100,2746
224,3,6,60,3,60,6,25,1,10113,50,488
224,3,7,61,1,40,3,60,2,1943,67.5,573
224,3,8,62,3,60,7,40,1,2195,42.5,808
224,3,9,63,3,90,7,40,1,1272,41.25,941
224,3,10,64,3,90,4,75,2,2449,13.75,3292
224,3,11,65,6,90,4,75,1,1643,100,843
224,3,12,66,4,10,1,75,1,1432,0,1144
224,3,13,67,3,60,9,25,2,5448,50,286
224,3,14,68,9,25,6,90,2,2315,45,2025
224,3,15,69,9,60,1,40,1,1576,100,708
224,3,16,70,7,10,6,90,2,2460,67.5,1001
224,3,17,71,6,25,9,60,2,1632,92.5,1137
224,3,18,72,9,25,1,40,1,5721,100,741
224,3,19,73,1,75,3,60,2,2523,75,2770
224,3,20,74,9,60,4,75,1,1777,85,792
224,3,21,75,9,60,6,25,1,1241,100,1142
224,3,22,76,4,75,9,25,2,1233,25,3541
224,3,23,77,9,25,4,10,1,2812,100,675
224,3,24,78,9,25,7,40,1,8413,50,0
224,3,25,79,1,75,9,60,2,2162,62.5,1791
224,3,26,80,4,75,6,90,2,16219,60,2749
224,3,27,81,4,75,7,10,1,2965,68.75,680
224,4,1,82,4,10,9,25,2,858,100,1267
224,4,2,83,7,40,6,90,2,2077,73.75,421
224,4,3,84,3,60,6,90,2,1105,73.75,945
224,4,4,85,6,90,3,60,1,7406,87.5,2198
224,4,5,86,1,40,9,60,2,858,100,1206
224,4,6,87,7,40,4,75,1,4930,35,479
224,4,7,88,6,90,1,75,1,1314,91.25,1171
224,4,8,89,1,75,6,25,2,2904,16.25,431
224,4,9,90,3,60,4,75,2,1328,66.25,1073
224,4,10,91,6,90,4,10,1,1057,93.75,575
224,4,11,92,4,10,3,60,2,1355,67.5,1458
224,4,12,93,6,90,7,10,1,1385,72.5,2753
224,4,13,94,4,75,7,40,2,2519,15,684
224,4,14,95,3,60,4,10,1,1254,71.25,647
224,4,15,96,7,40,1,75,1,1733,56.25,361
224,4,16,97,4,10,3,90,2,1401,76.25,2898
224,4,17,98,9,25,3,60,1,1140,50,372
224,4,18,99,1,40,9,25,2,989,83.75,643
224,4,19,100,7,10,6,25,2,1080,72.5,652
224,4,20,101,1,75,6,90,2,1758,76.25,426
224,4,21,102,1,40,7,10,1,1851,32.5,312
224,4,22,103,4,10,7,40,2,1866,76.25,436
224,4,23,104,9,60,6,90,1,1645,76.25,387
224,4,24,105,1,40,4,10,1,3250,57.5,1303
224,4,25,106,3,90,1,40,1,1810,88.75,574
224,4,26,107,7,40,4,10,1,11452,50,812
224,4,27,108,7,10,4,75,2,2661,50,1329
225,1,1,1,9,60,7,40,1,803,87.5,1178
225,1,2,2,9,60,3,90,2,1055,28.75,419
225,1,3,3,9,25,3,90,2,1271,50,519
225,1,4,4,1,40,7,10,2,1537,28.75,1173
225,1,5,5,7,10,4,75,2,1006,67.5,646
225,1,6,6,6,25,7,40,2,894,100,908
225,1,7,7,7,40,4,10,1,1362,50,368
225,1,8,8,3,60,9,25,2,1152,40,730
225,1,9,9,7,10,9,25,2,949,86.25,1383
225,1,10,10,7,10,1,75,2,1458,38.75,333
225,1,11,11,7,10,3,90,2,937,50,451
225,1,12,12,6,90,7,10,1,1078,100,1083
225,1,13,13,1,75,9,25,2,897,50,294
225,1,14,14,9,25,1,75,1,820,50,285
225,1,15,15,9,60,4,75,1,1112,50,325
225,1,16,16,6,90,1,75,1,571,50,455
225,1,17,17,4,75,3,90,1,1485,50,252
225,1,18,18,3,60,6,90,2,763,100,1375
225,1,19,19,6,90,1,40,1,837,95,717
225,1,20,20,3,90,4,75,1,1848,57.5,474
225,1,21,21,9,60,6,25,1,1824,100,802
225,1,22,22,9,25,1,40,1,1490,57.5,465
225,1,23,23,3,60,7,10,1,1201,50,247
225,1,24,24,9,60,1,75,1,940,70,345
225,1,25,25,4,10,9,60,2,658,100,1368
225,1,26,26,4,10,9,25,2,819,100,907
225,1,27,27,6,90,4,75,1,762,100,1093
225,2,1,28,9,60,6,90,1,985,50,487
225,2,2,29,7,10,1,40,2,1262,50,458
225,2,3,30,6,25,4,75,2,1007,67.5,584
225,2,4,31,4,75,7,40,1,1009,50,212
225,2,5,32,1,40,4,75,2,673,50,580
225,2,6,33,4,10,6,90,2,465,100,987
225,2,7,34,1,75,7,10,1,763,50,272
225,2,8,35,3,60,1,40,1,1972,50,900
225,2,9,36,4,75,3,60,1,541,98.75,625
225,2,10,37,3,60,6,25,1,1081,50,322
225,2,11,38,1,75,7,40,2,1250,50,305
225,2,12,39,4,75,6,90,2,1188,100,1735
225,2,13,40,1,40,6,90,2,700,98.75,1069
225,2,14,41,3,60,4,10,1,1319,50,0
225,2,15,42,3,90,7,40,1,677,50,272
225,2,16,43,4,10,7,40,2,720,100,879
225,2,17,44,4,75,9,25,1,1616,50,281
225,2,18,45,7,40,9,60,2,646,50,499
225,2,19,46,7,10,6,90,2,546,98.75,1276
225,2,20,47,4,10,3,90,2,866,50,244
225,2,21,48,9,25,7,10,2,895,26.25,1758
225,2,22,49,1,75,4,10,1,1157,50,244
225,2,23,50,4,75,9,60,2,1356,97.5,1278
225,2,24,51,4,10,1,40,2,1380,50,404
225,2,25,52,6,25,3,60,2,810,50,569
225,2,26,53,1,40,9,25,2,1325,62.5,361
225,2,27,54,3,90,1,40,1,744,100,788
225,3,1,55,3,60,1,75,1,1225,50,192
225,3,2,56,7,40,6,90,2,464,100,866
225,3,3,57,6,25,4,10,2,202,0,1558
225,3,4,58,6,90,9,60,2,1262,58.75,407
225,3,5,59,9,25,7,40,2,1294,50,226
225,3,6,60,4,75,7,10,1,1512,50,312
225,3,7,61,3,90,7,10,1,988,50,296
225,3,8,62,1,40,9,60,2,1133,100,1356
225,3,9,63,6,90,9,25,1,568,100,1403
225,3,10,64,3,60,7,40,2,2331,50,560
225,3,11,65,1,75,3,60,2,1460,50,359
225,3,12,66,4,10,6,25,2,741,57.5,902
225,3,13,67,9,60,7,10,1,945,100,879
225,3,14,68,7,10,9,60,2,584,76.25,1004
225,3,15,69,9,25,3,60,2,1282,28.75,530
225,3,16,70,7,40,3,90,2,624,50,0
225,3,17,71,9,25,4,10,1,907,50,374
225,3,18,72,1,75,6,90,2,1294,100,1228
225,3,19,73,6,25,1,40,1,536,53.75,1467
225,3,20,74,6,90,7,40,1,1001,100,967
225,3,21,75,9,25,6,90,2,624,35,1750
225,3,22,76,6,25,3,90,2,1201,61.25,506
225,3,23,77,9,60,1,40,1,1068,100,919
225,3,24,78,7,40,6,25,1,2013,100,878
225,3,25,79,7,10,3,60,2,1769,50,569
225,3,26,80,3,90,4,10,1,1036,50,383
225,3,27,81,3,90,1,75,1,709,50,461
225,4,1,82,4,10,3,60,2,542,50,224
225,4,2,83,1,75,3,90,2,713,100,1212
225,4,3,84,1,75,6,25,1,1227,50,646
225,4,4,85,7,10,6,25,2,1105,50,232
225,4,5,86,1,40,6,25,2,1232,50,124
225,4,6,87,7,40,9,25,1,1430,55,370
225,4,7,88,1,75,9,60,2,1027,78.75,593
225,4,8,89,6,25,1,75,1,1365,30,489
225,4,9,90,4,10,1,75,2,659,50,467
225,4,10,91,3,90,6,25,1,642,50,275
225,4,11,92,6,90,3,60,1,951,100,1394
225,4,12,93,7,40,4,75,2,1313,50,503
225,4,13,94,3,90,9,60,2,1033,97.5,849
225,4,14,95,6,25,9,60,2,563,87.5,774
225,4,15,96,6,90,4,10,1,551,100,809
225,4,16,97,7,40,1,75,1,607,50,346
225,4,17,98,9,25,4,75,2,508,50,344
225,4,18,99,7,40,3,60,1,914,50,426
225,4,19,100,3,60,4,75,2,719,100,1241
225,4,20,101,1,40,3,60,2,633,100,849
225,4,21,102,3,90,9,25,1,532,96.25,853
225,4,22,103,9,60,4,10,1,526,72.5,758
225,4,23,104,6,25,7,10,1,1533,50,35
225,4,24,105,1,40,4,10,1,1475,26.25,580
225,4,25,106,4,75,6,25,1,1080,50,262
225,4,26,107,1,40,3,90,2,515,58.75,756
225,4,27,108,4,75,1,40,1,527,100,925
226,1,1,1,1,75,7,40,2,2934,63.75,1743
226,1,2,2,7,10,6,90,2,3278,73.75,1862
226,1,3,3,7,10,3,90,2,3236,71.25,2085
226,1,4,4,4,10,1,40,1,5734,30,1324
226,1,5,5,1,75,9,60,2,2478,82.5,1221
226,1,6,6,1,40,6,25,2,3803,65,1355
226,1,7,7,7,10,9,60,2,6225,85,1805
226,1,8,8,9,60,7,10,1,5071,97.5,2006
226,1,9,9,3,60,7,40,2,5510,65,1199
226,1,10,10,4,10,1,75,2,4769,85,1627
226,1,11,11,7,40,6,90,2,5879,40,1069
226,1,12,12,9,60,6,90,2,3151,91.25,1168
226,1,13,13,3,90,1,40,1,3901,86.25,1255
226,1,14,14,7,10,1,40,2,6811,61.25,1124
226,1,15,15,6,25,7,40,2,7351,73.75,1698
226,1,16,16,4,10,9,25,2,4270,95,972
226,1,17,17,4,75,6,25,1,3870,97.5,1115
226,1,18,18,1,40,9,60,2,3104,90,931
226,1,19,19,4,10,9,60,2,2394,86.25,1069
226,1,20,20,3,90,4,75,2,6016,82.5,1182
226,1,21,21,1,75,3,90,2,2636,87.5,1146
226,1,22,22,1,40,4,75,2,2519,86.25,1051
226,1,23,23,6,25,4,10,1,1884,95,977
226,1,24,24,4,75,9,25,2,3483,87.5,1036
226,1,25,25,6,90,7,10,1,2847,88.75,1002
226,1,26,26,6,25,7,10,1,3711,85,2361
226,1,27,27,7,40,4,75,1,4035,60,1854
226,2,1,28,1,75,6,90,2,1195,73.75,1038
226,2,2,29,6,90,4,75,1,1971,75,1281
226,2,3,30,1,75,3,60,1,3940,40,757
226,2,4,31,7,40,9,25,1,3653,72.5,731
226,2,5,32,3,60,9,25,1,3601,77.5,1285
226,2,6,33,9,25,1,75,2,3477,82.5,890
226,2,7,34,4,10,6,90,2,1328,90,1032
226,2,8,35,3,60,6,90,2,3374,91.25,1672
226,2,9,36,3,90,7,40,1,3123,81.25,1079
226,2,10,37,7,40,3,60,2,5589,86.25,1054
226,2,11,38,3,90,9,60,2,3565,67.5,852
226,2,12,39,1,40,6,90,2,3056,100,1138
226,2,13,40,1,75,6,25,2,3034,58.75,1568
226,2,14,41,6,90,7,40,1,2107,95,1023
226,2,15,42,9,60,4,10,1,2576,90,1346
226,2,16,43,6,90,9,25,1,2926,87.5,1161
226,2,17,44,1,75,7,10,2,4199,88.75,1075
226,2,18,45,6,90,9,60,1,2966,100,1167
226,2,19,46,9,25,3,90,2,7930,78.75,1184
226,2,20,47,9,25,3,60,1,4768,65,758
226,2,21,48,9,60,4,75,2,3093,31.25,1659
226,2,22,49,3,60,1,75,1,2928,65,922
226,2,23,50,9,25,7,10,1,4243,90,1447
226,2,24,51,3,60,4,10,1,4276,78.75,3034
226,2,25,52,4,75,3,90,2,4723,83.75,1853
226,2,26,53,6,25,1,75,1,2386,76.25,1467
226,2,27,54,9,25,6,90,2,3876,62.5,1567
226,3,1,55,9,25,4,75,1,3112,71.25,1528
226,3,2,56,1,75,4,10,1,4008,62.5,1149
226,3,3,57,7,40,1,75,2,2782,12.5,1468
226,3,4,58,4,10,3,90,2,1502,80,927
226,3,5,59,6,25,3,90,1,3439,61.25,2318
226,3,6,60,4,75,6,90,2,1340,83.75,987
226,3,7,61,7,40,9,60,2,4662,87.5,1200
226,3,8,62,3,90,7,10,2,2576,78.75,1146
226,3,9,63,9,60,3,90,1,2202,83.75,4182
226,3,10,64,1,40,4,10,2,3734,25,1502
226,3,11,65,1,40,7,10,2,1358,70,1321
226,3,12,66,3,60,6,25,1,3166,86.25,1199
226,3,13,67,6,90,4,10,1,1470,85,1144
226,3,14,68,4,75,9,60,2,4316,86.25,1682
226,3,15,69,1,40,9,25,1,4936,32.5,667
226,3,16,70,9,60,1,40,1,1352,77.5,1721
226,3,17,71,4,10,3,60,2,4624,78.75,1932
226,3,18,72,1,40,3,60,2,1658,71.25,2018
226,3,19,73,9,25,1,40,1,1200,41.25,2489
226,3,20,74,1,40,3,90,2,1295,81.25,914
226,3,21,75,6,25,3,60,2,2387,66.25,871
226,3,22,76,4,75,3,60,1,1682,85,1580
226,3,23,77,4,10,7,40,2,3439,75,3438
226,3,24,78,3,90,1,75,1,4575,56.25,2434
226,3,25,79,6,25,9,60,2,3160,41.25,1492
226,3,26,80,9,60,7,40,1,2365,87.5,1874
226,3,27,81,7,10,6,25,1,4385,78.75,4004
226,4,1,82,3,90,9,25,2,2282,27.5,1044
226,4,2,83,9,25,7,40,2,3318,73.75,832
226,4,3,84,7,40,4,10,1,2129,81.25,988
226,4,4,85,6,90,1,75,1,2104,83.75,1740
226,4,5,86,7,10,1,75,1,3150,56.25,1534
226,4,6,87,4,75,7,40,1,4685,81.25,1420
226,4,7,88,7,10,9,25,2,2679,43.75,3738
226,4,8,89,4,10,6,25,2,1712,77.5,950
226,4,9,90,7,40,6,25,1,2486,76.25,1931
226,4,10,91,4,75,7,10,1,2090,67.5,1119
226,4,11,92,6,90,3,60,1,3467,66.25,1285
226,4,12,93,4,75,1,40,1,2148,76.25,1682
226,4,13,94,7,10,3,60,2,3098,35,971
226,4,14,95,9,25,4,10,1,2580,73.75,1472
226,4,15,96,6,25,4,75,2,3012,76.25,1382
226,4,16,97,9,60,6,25,1,1736,81.25,1867
226,4,17,98,3,60,1,40,1,1343,70,1135
226,4,18,99,1,75,9,25,2,1883,80,1647
226,4,19,100,3,60,4,75,2,3053,82.5,1700
226,4,20,101,3,90,6,25,1,2816,95,1043
226,4,21,102,6,90,1,40,1,1847,75,1616
226,4,22,103,7,10,4,75,2,2504,86.25,1946
226,4,23,104,3,60,7,10,1,4176,40,826
226,4,24,105,3,90,4,10,1,2514,85,1234
226,4,25,106,7,40,3,90,2,3079,20,3227
226,4,26,107,9,60,1,75,1,4084,80,1477
226,4,27,108,6,25,1,40,1,5362,88.75,1642
227,1,1,1,3,60,9,25,2,8302,61.25,2121
227,1,2,2,4,75,7,10,1,3273,33.75,2521
227,1,3,3,3,60,1,40,1,2753,92.5,2593
227,1,4,4,3,90,7,40,2,3755,75,3595
227,1,5,5,7,10,6,25,2,3486,61.25,1891
227,1,6,6,9,60,4,10,1,2586,100,2024
227,1,7,7,7,10,3,60,2,6834,36.25,2657
227,1,8,8,3,90,9,60,2,3795,76.25,3488
227,1,9,9,1,40,4,10,2,6096,11.25,2322
227,1,10,10,3,90,1,75,1,7296,100,1659
227,1,11,11,4,10,1,75,2,5376,66.25,2242
227,1,12,12,3,90,7,10,1,8946,37.5,3771
227,1,13,13,6,90,4,75,1,1903,100,1870
227,1,14,14,6,25,7,10,1,2869,85,4214
227,1,15,15,6,25,1,40,1,3677,77.5,5379
227,1,16,16,6,25,3,90,1,19871,12.5,3160
227,1,17,17,7,10,6,90,2,3164,90,1729
227,1,18,18,4,75,3,60,1,3073,87.5,3510
227,1,19,19,9,60,1,75,1,2758,72.5,6013
227,1,20,20,3,60,1,75,1,6647,76.25,1590
227,1,21,21,6,25,4,10,1,4180,100,1684
227,1,22,22,1,75,4,10,2,8321,58.75,2640
227,1,23,23,1,40,6,25,2,2266,75,4251
227,1,24,24,7,10,4,75,1,7177,6.25,2948
227,1,25,25,9,25,1,40,1,1919,87.5,1621
227,1,26,26,1,75,9,25,2,1847,88.75,2094
227,1,27,27,4,75,6,25,1,4189,77.5,1723
227,2,1,28,1,75,9,60,2,2980,100,1650
227,2,2,29,7,40,3,90,1,4729,87.5,2738
227,2,3,30,9,25,7,40,1,5082,25,4660
227,2,4,31,4,10,3,90,2,3990,87.5,3512
227,2,5,32,1,40,3,60,2,2076,100,2400
227,2,6,33,3,90,1,40,1,1636,100,1519
227,2,7,34,6,90,7,10,1,5997,85,1839
227,2,8,35,6,25,1,75,1,3907,86.25,3142
227,2,9,36,7,10,9,60,2,1494,100,3652
227,2,10,37,4,10,7,40,2,2407,50,28
227,2,11,38,4,75,6,90,2,3791,100,1337
227,2,12,39,1,75,3,60,2,3739,55,5701
227,2,13,40,9,25,4,75,1,5358,28.75,2429
227,2,14,41,6,25,4,75,1,6198,28.75,1771
227,2,15,42,3,60,6,25,1,6562,18.75,1526
227,2,16,43,7,10,1,40,1,3229,75,1881
227,2,17,44,9,25,4,10,1,2187,100,1755
227,2,18,45,7,40,9,60,2,1720,100,1486
227,2,19,46,6,90,7,40,1,2374,90,3740
227,2,20,47,3,60,7,10,2,10736,32.5,2348
